#                                                           
#   __   __     _        __  __       ____      U  ___  u   
#   \ \ / / U  /"\  U u |" \/ "| u U | __") u    \/"_ \/    
#    \ V /   \/ _ \/   \| |\/| |/   \|  _ \/     | | | |    
#   U_|"|_u  / ___ \    | |  | |     | |_) | .-,_| |_| |    
#     |_|   /_/   \_\   |_|  |_|     |____/   \_)-\___/     
# .-,//|(_   \\    >>  <<,-,,-.     _|| \\_        \\       
#  \_) (__) (__)  (__)  (./  \.)   (__) (__)      (__)      
#                                                           
#                                                           
#              GPL Version 4.1.4 Revision 76                
#                        MPI Build                          
#                http://www.yambo-code.org                  
#
# BSK|Identifier              :9599
#    |Dimension               :5098
#    |Bands                   :524 - 624
#    |Exchange           [res]: yes
#    |Correlation        [res]: no
#    |Kernel`s coupling       : no
#    |Exchange           [cpl]: no
#    |Correlation        [cpl]: no
#    |W interaction is bare   : no
#    |ALDA kernel in R-space  : no
#    |RL vectors    [exchange]:55207
#    |E/h energy range    [ev]:-1.000000 - -1.000000
#    |Coupling range     [o/o]: 100.0000 -  100.0000
#
# Electron-Hole pairs that contributes to Excitonic State 7 more than 5%
#
#  E    [eV]  Amplitude
#  
  2.383     0.3998E-3
  2.384     0.4014E-3
  2.385     0.4031E-3
  2.386     0.4047E-3
  2.387     0.4063E-3
  2.388     0.4080E-3
  2.389     0.4096E-3
  2.390     0.4113E-3
  2.391     0.4129E-3
  2.392     0.4146E-3
  2.393     0.4163E-3
  2.394     0.4180E-3
  2.395     0.4197E-3
  2.396     0.4215E-3
  2.397     0.4232E-3
  2.398     0.4249E-3
  2.399     0.4267E-3
  2.400     0.4285E-3
  2.401     0.4302E-3
  2.402     0.4320E-3
  2.403     0.4338E-3
  2.404     0.4357E-3
  2.405     0.4375E-3
  2.406     0.4393E-3
  2.407     0.4412E-3
  2.408     0.4430E-3
  2.409     0.4449E-3
  2.410     0.4468E-3
  2.411     0.4487E-3
  2.412     0.4506E-3
  2.413     0.4525E-3
  2.414     0.4544E-3
  2.415     0.4564E-3
  2.416     0.4583E-3
  2.417     0.4603E-3
  2.418     0.4623E-3
  2.419     0.4643E-3
  2.420     0.4663E-3
  2.421     0.4683E-3
  2.422     0.4703E-3
  2.423     0.4724E-3
  2.424     0.4744E-3
  2.425     0.4765E-3
  2.426     0.4786E-3
  2.427     0.4807E-3
  2.428     0.4828E-3
  2.429     0.4849E-3
  2.430     0.4871E-3
  2.431     0.4892E-3
  2.432     0.4914E-3
  2.433     0.4936E-3
  2.434     0.4958E-3
  2.435     0.4980E-3
  2.436     0.5002E-3
  2.437     0.5025E-3
  2.438     0.5047E-3
  2.439     0.5070E-3
  2.440     0.5093E-3
  2.441     0.5116E-3
  2.442     0.5139E-3
  2.443     0.5163E-3
  2.444     0.5186E-3
  2.445     0.5210E-3
  2.446     0.5234E-3
  2.447     0.5258E-3
  2.448     0.5282E-3
  2.449     0.5306E-3
  2.450     0.5331E-3
  2.451     0.5355E-3
  2.452     0.5380E-3
  2.453     0.5405E-3
  2.454     0.5431E-3
  2.455     0.5456E-3
  2.456     0.5482E-3
  2.457     0.5507E-3
  2.458     0.5533E-3
  2.459     0.5559E-3
  2.460     0.5586E-3
  2.461     0.5612E-3
  2.462     0.5639E-3
  2.463     0.5666E-3
  2.464     0.5693E-3
  2.465     0.5720E-3
  2.466     0.5747E-3
  2.467     0.5775E-3
  2.468     0.5803E-3
  2.469     0.5831E-3
  2.470     0.5859E-3
  2.471     0.5888E-3
  2.472     0.5916E-3
  2.473     0.5945E-3
  2.474     0.5974E-3
  2.475     0.6004E-3
  2.476     0.6033E-3
  2.477     0.6063E-3
  2.478     0.6093E-3
  2.479     0.6123E-3
  2.480     0.6154E-3
  2.481     0.6184E-3
  2.482     0.6215E-3
  2.483     0.6246E-3
  2.484     0.6277E-3
  2.485     0.6309E-3
  2.486     0.6341E-3
  2.487     0.6373E-3
  2.488     0.6405E-3
  2.489     0.6438E-3
  2.490     0.6470E-3
  2.491     0.6503E-3
  2.492     0.6537E-3
  2.493     0.6570E-3
  2.494     0.6604E-3
  2.495     0.6638E-3
  2.496     0.6672E-3
  2.497     0.6707E-3
  2.498     0.6742E-3
  2.499     0.6777E-3
  2.500     0.6812E-3
  2.501     0.6848E-3
  2.502     0.6884E-3
  2.503     0.6920E-3
  2.504     0.6957E-3
  2.505     0.6994E-3
  2.506     0.7031E-3
  2.507     0.7068E-3
  2.508     0.7106E-3
  2.509     0.7144E-3
  2.510     0.7182E-3
  2.511     0.7221E-3
  2.512     0.7260E-3
  2.513     0.7299E-3
  2.514     0.7339E-3
  2.515     0.7379E-3
  2.516     0.7419E-3
  2.517     0.7460E-3
  2.518     0.7500E-3
  2.519     0.7542E-3
  2.520     0.7583E-3
  2.521     0.7625E-3
  2.522     0.7667E-3
  2.523     0.7710E-3
  2.524     0.7753E-3
  2.525     0.7796E-3
  2.526     0.7840E-3
  2.527     0.7884E-3
  2.528     0.7929E-3
  2.529     0.7973E-3
  2.530     0.8019E-3
  2.531     0.8064E-3
  2.532     0.8110E-3
  2.533     0.8157E-3
  2.534     0.8203E-3
  2.535     0.8251E-3
  2.536     0.8298E-3
  2.537     0.8346E-3
  2.538     0.8395E-3
  2.539     0.8443E-3
  2.540     0.8493E-3
  2.541     0.8542E-3
  2.542     0.8592E-3
  2.543     0.8643E-3
  2.544     0.8694E-3
  2.545     0.8746E-3
  2.546     0.8797E-3
  2.547     0.8850E-3
  2.548     0.8903E-3
  2.549     0.8956E-3
  2.550     0.9010E-3
  2.551     0.9064E-3
  2.552     0.9119E-3
  2.553     0.9174E-3
  2.554     0.9230E-3
  2.555     0.9286E-3
  2.556     0.9343E-3
  2.557     0.9401E-3
  2.558     0.9459E-3
  2.559     0.9517E-3
  2.560     0.9576E-3
  2.561     0.9635E-3
  2.562     0.9695E-3
  2.563     0.9756E-3
  2.564     0.9817E-3
  2.565     0.9879E-3
  2.566     0.9941E-3
  2.567     0.1000E-2
  2.568     0.1007E-2
  2.569     0.1013E-2
  2.570     0.1020E-2
  2.571     0.1026E-2
  2.572     0.1033E-2
  2.573     0.1040E-2
  2.574     0.1046E-2
  2.575     0.1053E-2
  2.576     0.1060E-2
  2.577     0.1067E-2
  2.578     0.1074E-2
  2.579     0.1081E-2
  2.580     0.1088E-2
  2.581     0.1095E-2
  2.582     0.1103E-2
  2.583     0.1110E-2
  2.584     0.1117E-2
  2.585     0.1125E-2
  2.586     0.1132E-2
  2.587     0.1140E-2
  2.588     0.1148E-2
  2.589     0.1156E-2
  2.590     0.1163E-2
  2.591     0.1171E-2
  2.592     0.1180E-2
  2.593     0.1188E-2
  2.594     0.1196E-2
  2.595     0.1204E-2
  2.596     0.1213E-2
  2.597     0.1221E-2
  2.598     0.1230E-2
  2.599     0.1238E-2
  2.600     0.1247E-2
  2.601     0.1256E-2
  2.602     0.1265E-2
  2.603     0.1274E-2
  2.604     0.1283E-2
  2.605     0.1292E-2
  2.606     0.1302E-2
  2.607     0.1311E-2
  2.608     0.1321E-2
  2.609     0.1330E-2
  2.610     0.1340E-2
  2.611     0.1350E-2
  2.612     0.1360E-2
  2.613     0.1370E-2
  2.614     0.1380E-2
  2.615     0.1390E-2
  2.616     0.1401E-2
  2.617     0.1411E-2
  2.618     0.1422E-2
  2.619     0.1433E-2
  2.620     0.1444E-2
  2.621     0.1455E-2
  2.622     0.1466E-2
  2.623     0.1477E-2
  2.624     0.1489E-2
  2.625     0.1500E-2
  2.626     0.1512E-2
  2.627     0.1524E-2
  2.628     0.1536E-2
  2.629     0.1548E-2
  2.630     0.1560E-2
  2.631     0.1572E-2
  2.632     0.1585E-2
  2.633     0.1597E-2
  2.634     0.1610E-2
  2.635     0.1623E-2
  2.636     0.1636E-2
  2.637     0.1650E-2
  2.638     0.1663E-2
  2.639     0.1677E-2
  2.640     0.1691E-2
  2.641     0.1705E-2
  2.642     0.1719E-2
  2.643     0.1733E-2
  2.644     0.1748E-2
  2.645     0.1762E-2
  2.646     0.1777E-2
  2.647     0.1792E-2
  2.648     0.1808E-2
  2.649     0.1823E-2
  2.650     0.1839E-2
  2.651     0.1854E-2
  2.652     0.1871E-2
  2.653     0.1887E-2
  2.654     0.1903E-2
  2.655     0.1920E-2
  2.656     0.1937E-2
  2.657     0.1954E-2
  2.658     0.1971E-2
  2.659     0.1989E-2
  2.660     0.2007E-2
  2.661     0.2025E-2
  2.662     0.2043E-2
  2.663     0.2062E-2
  2.664     0.2081E-2
  2.665     0.2100E-2
  2.666     0.2119E-2
  2.667     0.2139E-2
  2.668     0.2159E-2
  2.669     0.2179E-2
  2.670     0.2199E-2
  2.671     0.2220E-2
  2.672     0.2241E-2
  2.673     0.2262E-2
  2.674     0.2284E-2
  2.675     0.2306E-2
  2.676     0.2328E-2
  2.677     0.2351E-2
  2.678     0.2374E-2
  2.679     0.2397E-2
  2.680     0.2421E-2
  2.681     0.2445E-2
  2.682     0.2469E-2
  2.683     0.2494E-2
  2.684     0.2519E-2
  2.685     0.2544E-2
  2.686     0.2570E-2
  2.687     0.2596E-2
  2.688     0.2623E-2
  2.689     0.2650E-2
  2.690     0.2677E-2
    2.6913     0.0027
    2.6923     0.0027
    2.6933     0.0028
    2.6943     0.0028
    2.6953     0.0028
    2.6963     0.0029
    2.6973     0.0029
    2.6983     0.0029
    2.6993     0.0029
    2.7003     0.0030
    2.7013     0.0030
    2.7023     0.0030
    2.7033     0.0031
    2.7043     0.0031
    2.7053     0.0031
    2.7063     0.0032
    2.7073     0.0032
    2.7083     0.0033
    2.7093     0.0033
    2.7103     0.0033
    2.7113     0.0034
    2.7123     0.0034
    2.7133     0.0034
    2.7143     0.0035
    2.7153     0.0035
    2.7163     0.0036
    2.7173     0.0036
    2.7183     0.0037
    2.7193     0.0037
    2.7203     0.0037
    2.7213     0.0038
    2.7223     0.0038
    2.7233     0.0039
    2.7243     0.0039
    2.7253     0.0040
    2.7263     0.0040
    2.7273     0.0041
    2.7283     0.0041
    2.7293     0.0042
    2.7303     0.0043
    2.7313     0.0043
    2.7323     0.0044
    2.7333     0.0044
    2.7343     0.0045
    2.7353     0.0045
    2.7363     0.0046
    2.7373     0.0047
    2.7383     0.0047
    2.7393     0.0048
    2.7403     0.0049
    2.7413     0.0049
    2.7423     0.0050
    2.7433     0.0051
    2.7443     0.0051
    2.7453     0.0052
    2.7463     0.0053
    2.7473     0.0054
    2.7483     0.0055
    2.7493     0.0055
    2.7503     0.0056
    2.7513     0.0057
    2.7523     0.0058
    2.7533     0.0059
    2.7543     0.0060
    2.7553     0.0061
    2.7563     0.0062
    2.7573     0.0063
    2.7583     0.0064
    2.7593     0.0065
    2.7603     0.0066
    2.7613     0.0067
    2.7623     0.0068
    2.7633     0.0069
    2.7643     0.0070
    2.7653     0.0071
    2.7663     0.0073
    2.7673     0.0074
    2.7683     0.0075
    2.7693     0.0076
    2.7703     0.0078
    2.7713     0.0079
    2.7723     0.0081
    2.7733     0.0082
    2.7743     0.0083
    2.7753     0.0085
    2.7763     0.0087
    2.7773     0.0088
    2.7783     0.0090
    2.7793     0.0092
    2.7803     0.0093
    2.7813     0.0095
    2.7823     0.0097
    2.7833     0.0099
   2.78428    0.01010
   2.78528    0.01031
   2.78628    0.01052
   2.78728    0.01073
   2.78828    0.01096
   2.78928    0.01119
   2.79028    0.01143
   2.79128    0.01168
   2.79228    0.01193
   2.79328    0.01220
   2.79428    0.01247
   2.79528    0.01275
   2.79628    0.01304
   2.79728    0.01334
   2.79828    0.01365
   2.79928    0.01397
   2.80028    0.01431
   2.80128    0.01465
   2.80228    0.01501
   2.80328    0.01538
   2.80428    0.01577
   2.80528    0.01617
   2.80628    0.01659
   2.80728    0.01702
   2.80828    0.01747
   2.80928    0.01793
   2.81028    0.01842
   2.81128    0.01893
   2.81228    0.01945
   2.81328    0.02000
   2.81428    0.02057
   2.81528    0.02117
   2.81628    0.02179
   2.81728    0.02244
   2.81828    0.02312
   2.81928    0.02383
   2.82028    0.02458
   2.82128    0.02536
   2.82228    0.02617
   2.82328    0.02703
   2.82428    0.02793
   2.82528    0.02887
   2.82628    0.02986
   2.82728    0.03090
   2.82828    0.03200
   2.82928    0.03316
   2.83028    0.03438
   2.83128    0.03566
   2.83228    0.03702
   2.83328    0.03846
   2.83428    0.03998
   2.83528    0.04160
   2.83628    0.04331
   2.83728    0.04513
   2.83828    0.04706
   2.83928    0.04912
   2.84028    0.05131
   2.84128    0.05365
   2.84228    0.05615
   2.84328    0.05882
   2.84428    0.06169
   2.84528    0.06477
   2.84628    0.06807
   2.84728    0.07163
   2.84828    0.07547
   2.84928    0.07962
   2.85028    0.08410
   2.85128    0.08897
   2.85228    0.09425
  2.853277   0.100000
  2.854277   0.106270
  2.855277   0.113123
  2.856277   0.120627
  2.857277   0.128865
  2.858277   0.137932
  2.859277   0.147929
  2.860277   0.158984
  2.861277   0.171233
  2.862277   0.184842
  2.863277   0.200001
  2.864277   0.216919
  2.865277   0.235851
  2.866277   0.257069
  2.867277   0.280897
  2.868277   0.307693
  2.869277   0.337836
  2.870277   0.371750
  2.871277   0.409836
  2.872277   0.452494
  2.873277   0.500001
  2.874277   0.552483
  2.875277   0.609760
  2.876277   0.671139
  2.877277   0.735300
  2.878277   0.800001
  2.879277   0.862065
  2.880277   0.917434
  2.881277   0.961537
  2.882277   0.990101
  2.883277   1.000000
  2.884277   0.990101
  2.885277   0.961537
  2.886277   0.917434
  2.887277   0.862065
  2.888277   0.800001
  2.889277   0.735287
  2.890277   0.671139
  2.891277   0.609760
  2.892277   0.552483
  2.893277   0.500001
  2.894277   0.452484
  2.895277   0.409836
  2.896277   0.371750
  2.897277   0.337836
  2.898277   0.307693
  2.899277   0.280897
  2.900277   0.257069
  2.901277   0.235851
  2.902277   0.216919
  2.903277   0.200001
  2.904277   0.184842
  2.905277   0.171233
  2.906277   0.158981
  2.907277   0.147929
  2.908277   0.137932
  2.909277   0.128865
  2.910277   0.120627
  2.911277   0.113121
  2.912277   0.106270
  2.913277   0.100000
   2.91428    0.09425
   2.91528    0.08897
   2.91628    0.08410
   2.91728    0.07962
   2.91828    0.07547
   2.91928    0.07163
   2.92028    0.06807
   2.92128    0.06477
   2.92228    0.06169
   2.92328    0.05882
   2.92428    0.05615
   2.92528    0.05365
   2.92628    0.05131
   2.92728    0.04912
   2.92828    0.04706
   2.92928    0.04513
   2.93028    0.04331
   2.93128    0.04160
   2.93228    0.03998
   2.93328    0.03846
   2.93428    0.03702
   2.93528    0.03566
   2.93628    0.03438
   2.93728    0.03316
   2.93828    0.03200
   2.93928    0.03090
   2.94028    0.02986
   2.94128    0.02887
   2.94228    0.02793
   2.94328    0.02703
   2.94428    0.02617
   2.94528    0.02535
   2.94628    0.02458
   2.94728    0.02383
   2.94828    0.02312
   2.94928    0.02244
   2.95028    0.02179
   2.95128    0.02117
   2.95228    0.02057
   2.95328    0.02000
   2.95428    0.01945
   2.95528    0.01893
   2.95628    0.01842
   2.95728    0.01793
   2.95828    0.01747
   2.95928    0.01702
   2.96028    0.01659
   2.96128    0.01617
   2.96228    0.01577
   2.96328    0.01538
   2.96428    0.01501
   2.96528    0.01465
   2.96628    0.01431
   2.96728    0.01397
   2.96828    0.01365
   2.96928    0.01334
   2.97028    0.01304
   2.97128    0.01275
   2.97228    0.01247
   2.97328    0.01220
   2.97428    0.01193
   2.97528    0.01168
   2.97628    0.01143
   2.97728    0.01119
   2.97828    0.01096
   2.97928    0.01073
   2.98028    0.01052
   2.98128    0.01031
   2.98228    0.01010
    2.9833     0.0099
    2.9843     0.0097
    2.9853     0.0095
    2.9863     0.0093
    2.9873     0.0092
    2.9883     0.0090
    2.9893     0.0088
    2.9903     0.0087
    2.9913     0.0085
    2.9923     0.0083
    2.9933     0.0082
    2.9943     0.0081
    2.9953     0.0079
    2.9963     0.0078
    2.9973     0.0076
    2.9983     0.0075
    2.9993     0.0074
    3.0003     0.0073
    3.0013     0.0071
    3.0023     0.0070
    3.0033     0.0069
    3.0043     0.0068
    3.0053     0.0067
    3.0063     0.0066
    3.0073     0.0065
    3.0083     0.0064
    3.0093     0.0063
    3.0103     0.0062
    3.0113     0.0061
    3.0123     0.0060
    3.0133     0.0059
    3.0143     0.0058
    3.0153     0.0057
    3.0163     0.0056
    3.0173     0.0055
    3.0183     0.0055
    3.0193     0.0054
    3.0203     0.0053
    3.0213     0.0052
    3.0223     0.0051
    3.0233     0.0051
    3.0243     0.0050
    3.0253     0.0049
    3.0263     0.0049
    3.0273     0.0048
    3.0283     0.0047
    3.0293     0.0047
    3.0303     0.0046
    3.0313     0.0045
    3.0323     0.0045
    3.0333     0.0044
    3.0343     0.0044
    3.0353     0.0043
    3.0363     0.0043
    3.0373     0.0042
    3.0383     0.0041
    3.0393     0.0041
    3.0403     0.0040
    3.0413     0.0040
    3.0423     0.0039
    3.0433     0.0039
    3.0443     0.0038
    3.0453     0.0038
    3.0463     0.0037
    3.0473     0.0037
    3.0483     0.0037
    3.0493     0.0036
    3.0503     0.0036
    3.0513     0.0035
    3.0523     0.0035
    3.0533     0.0034
    3.0543     0.0034
    3.0553     0.0034
    3.0563     0.0033
    3.0573     0.0033
    3.0583     0.0033
    3.0593     0.0032
    3.0603     0.0032
    3.0613     0.0031
    3.0623     0.0031
    3.0633     0.0031
  3.064     0.3043E-2
  3.065     0.3010E-2
  3.066     0.2977E-2
  3.067     0.2945E-2
  3.068     0.2913E-2
  3.069     0.2882E-2
  3.070     0.2852E-2
  3.071     0.2821E-2
  3.072     0.2792E-2
  3.073     0.2762E-2
  3.074     0.2734E-2
  3.075     0.2705E-2
  3.076     0.2677E-2
  3.077     0.2650E-2
  3.078     0.2623E-2
  3.079     0.2596E-2
  3.080     0.2570E-2
  3.081     0.2544E-2
  3.082     0.2519E-2
  3.083     0.2494E-2
  3.084     0.2469E-2
  3.085     0.2445E-2
  3.086     0.2421E-2
  3.087     0.2397E-2
  3.088     0.2374E-2
  3.089     0.2351E-2
  3.090     0.2328E-2
  3.091     0.2306E-2
  3.092     0.2284E-2
  3.093     0.2262E-2
  3.094     0.2241E-2
  3.095     0.2220E-2
  3.096     0.2199E-2
  3.097     0.2179E-2
  3.098     0.2159E-2
  3.099     0.2139E-2
  3.100     0.2119E-2
  3.101     0.2100E-2
  3.102     0.2081E-2
  3.103     0.2062E-2
  3.104     0.2043E-2
  3.105     0.2025E-2
  3.106     0.2007E-2
  3.107     0.1989E-2
  3.108     0.1971E-2
  3.109     0.1954E-2
  3.110     0.1937E-2
  3.111     0.1920E-2
  3.112     0.1903E-2
  3.113     0.1887E-2
  3.114     0.1871E-2
  3.115     0.1854E-2
  3.116     0.1839E-2
  3.117     0.1823E-2
  3.118     0.1808E-2
  3.119     0.1792E-2
  3.120     0.1777E-2
  3.121     0.1762E-2
  3.122     0.1748E-2
  3.123     0.1733E-2
  3.124     0.1719E-2
  3.125     0.1705E-2
  3.126     0.1691E-2
  3.127     0.1677E-2
  3.128     0.1663E-2
  3.129     0.1650E-2
  3.130     0.1636E-2
  3.131     0.1623E-2
  3.132     0.1610E-2
  3.133     0.1597E-2
  3.134     0.1585E-2
  3.135     0.1572E-2
  3.136     0.1560E-2
  3.137     0.1548E-2
  3.138     0.1536E-2
  3.139     0.1524E-2
  3.140     0.1512E-2
  3.141     0.1500E-2
  3.142     0.1489E-2
  3.143     0.1477E-2
  3.144     0.1466E-2
  3.145     0.1455E-2
  3.146     0.1444E-2
  3.147     0.1433E-2
  3.148     0.1422E-2
  3.149     0.1411E-2
  3.150     0.1401E-2
  3.151     0.1390E-2
  3.152     0.1380E-2
  3.153     0.1370E-2
  3.154     0.1360E-2
  3.155     0.1350E-2
  3.156     0.1340E-2
  3.157     0.1330E-2
  3.158     0.1321E-2
  3.159     0.1311E-2
  3.160     0.1302E-2
  3.161     0.1292E-2
  3.162     0.1283E-2
  3.163     0.1274E-2
  3.164     0.1265E-2
  3.165     0.1256E-2
  3.166     0.1247E-2
  3.167     0.1238E-2
  3.168     0.1230E-2
  3.169     0.1221E-2
  3.170     0.1213E-2
  3.171     0.1204E-2
  3.172     0.1196E-2
  3.173     0.1188E-2
  3.174     0.1180E-2
  3.175     0.1171E-2
  3.176     0.1163E-2
  3.177     0.1156E-2
  3.178     0.1148E-2
  3.179     0.1140E-2
  3.180     0.1132E-2
  3.181     0.1125E-2
  3.182     0.1117E-2
  3.183     0.1110E-2
  3.184     0.1103E-2
  3.185     0.1095E-2
  3.186     0.1088E-2
  3.187     0.1081E-2
  3.188     0.1074E-2
  3.189     0.1067E-2
  3.190     0.1060E-2
  3.191     0.1053E-2
  3.192     0.1046E-2
  3.193     0.1040E-2
  3.194     0.1033E-2
  3.195     0.1026E-2
  3.196     0.1020E-2
  3.197     0.1013E-2
  3.198     0.1007E-2
  3.199     0.1000E-2
  3.200     0.9941E-3
  3.201     0.9879E-3
  3.202     0.9817E-3
  3.203     0.9756E-3
  3.204     0.9695E-3
  3.205     0.9635E-3
  3.206     0.9576E-3
  3.207     0.9517E-3
  3.208     0.9459E-3
  3.209     0.9401E-3
  3.210     0.9343E-3
  3.211     0.9286E-3
  3.212     0.9230E-3
  3.213     0.9174E-3
  3.214     0.9119E-3
  3.215     0.9064E-3
  3.216     0.9010E-3
  3.217     0.8956E-3
  3.218     0.8903E-3
  3.219     0.8850E-3
  3.220     0.8797E-3
  3.221     0.8746E-3
  3.222     0.8694E-3
  3.223     0.8643E-3
  3.224     0.8592E-3
  3.225     0.8542E-3
  3.226     0.8493E-3
  3.227     0.8443E-3
  3.228     0.8395E-3
  3.229     0.8346E-3
  3.230     0.8298E-3
  3.231     0.8251E-3
  3.232     0.8203E-3
  3.233     0.8157E-3
  3.234     0.8110E-3
  3.235     0.8064E-3
  3.236     0.8019E-3
  3.237     0.7973E-3
  3.238     0.7929E-3
  3.239     0.7884E-3
  3.240     0.7840E-3
  3.241     0.7796E-3
  3.242     0.7753E-3
  3.243     0.7710E-3
  3.244     0.7667E-3
  3.245     0.7625E-3
  3.246     0.7583E-3
  3.247     0.7542E-3
  3.248     0.7500E-3
  3.249     0.7460E-3
  3.250     0.7419E-3
  3.251     0.7379E-3
  3.252     0.7339E-3
  3.253     0.7299E-3
  3.254     0.7260E-3
  3.255     0.7221E-3
  3.256     0.7182E-3
  3.257     0.7144E-3
  3.258     0.7106E-3
  3.259     0.7068E-3
  3.260     0.7031E-3
  3.261     0.6994E-3
  3.262     0.6957E-3
  3.263     0.6920E-3
  3.264     0.6884E-3
  3.265     0.6848E-3
  3.266     0.6812E-3
  3.267     0.6777E-3
  3.268     0.6742E-3
  3.269     0.6707E-3
  3.270     0.6672E-3
  3.271     0.6638E-3
  3.272     0.6604E-3
  3.273     0.6570E-3
  3.274     0.6537E-3
  3.275     0.6503E-3
  3.276     0.6470E-3
  3.277     0.6438E-3
  3.278     0.6405E-3
  3.279     0.6373E-3
  3.280     0.6341E-3
  3.281     0.6309E-3
  3.282     0.6277E-3
  3.283     0.6246E-3
  3.284     0.6215E-3
  3.285     0.6184E-3
  3.286     0.6154E-3
  3.287     0.6123E-3
  3.288     0.6093E-3
  3.289     0.6063E-3
  3.290     0.6033E-3
  3.291     0.6004E-3
  3.292     0.5974E-3
  3.293     0.5945E-3
  3.294     0.5916E-3
  3.295     0.5888E-3
  3.296     0.5859E-3
  3.297     0.5831E-3
  3.298     0.5803E-3
  3.299     0.5775E-3
  3.300     0.5747E-3
  3.301     0.5720E-3
  3.302     0.5693E-3
  3.303     0.5666E-3
  3.304     0.5639E-3
  3.305     0.5612E-3
  3.306     0.5586E-3
  3.307     0.5559E-3
  3.308     0.5533E-3
  3.309     0.5507E-3
  3.310     0.5482E-3
  3.311     0.5456E-3
  3.312     0.5431E-3
  3.313     0.5405E-3
  3.314     0.5380E-3
  3.315     0.5355E-3
  3.316     0.5331E-3
  3.317     0.5306E-3
  3.318     0.5282E-3
  3.319     0.5258E-3
  3.320     0.5234E-3
  3.321     0.5210E-3
  3.322     0.5186E-3
  3.323     0.5163E-3
  3.324     0.5139E-3
  3.325     0.5116E-3
  3.326     0.5093E-3
  3.327     0.5070E-3
  3.328     0.5047E-3
  3.329     0.5025E-3
  3.330     0.5002E-3
  3.331     0.4980E-3
  3.332     0.4958E-3
  3.333     0.4936E-3
  3.334     0.4914E-3
  3.335     0.4892E-3
  3.336     0.4871E-3
  3.337     0.4849E-3
  3.338     0.4828E-3
  3.339     0.4807E-3
  3.340     0.4786E-3
  3.341     0.4765E-3
  3.342     0.4744E-3
  3.343     0.4724E-3
  3.344     0.4703E-3
  3.345     0.4683E-3
  3.346     0.4663E-3
  3.347     0.4643E-3
  3.348     0.4623E-3
  3.349     0.4603E-3
  3.350     0.4583E-3
  3.351     0.4564E-3
  3.352     0.4544E-3
  3.353     0.4525E-3
  3.354     0.4506E-3
  3.355     0.4487E-3
  3.356     0.4468E-3
  3.357     0.4449E-3
  3.358     0.4430E-3
  3.359     0.4412E-3
  3.360     0.4393E-3
  3.361     0.4375E-3
  3.362     0.4357E-3
  3.363     0.4338E-3
  3.364     0.4320E-3
  3.365     0.4302E-3
  3.366     0.4285E-3
  3.367     0.4267E-3
  3.368     0.4249E-3
  3.369     0.4232E-3
  3.370     0.4215E-3
  3.371     0.4197E-3
  3.372     0.4180E-3
  3.373     0.4163E-3
  3.374     0.4146E-3
  3.375     0.4129E-3
  3.376     0.4113E-3
  3.377     0.4096E-3
  3.378     0.4080E-3
  3.379     0.4063E-3
  3.380     0.4047E-3
  3.381     0.4031E-3
  3.382     0.4014E-3
# 
# 06/20/2019 at 00:18 YPP @ br018.pvt.bridges.psc.edu [start]
# 06/20/2019 at 00:19                                 [end]
#  
# Timing   [Min/Max/Average]: 02s/02s/02s
#
# .-Input file : amp.in
# | excitons                     # [R] Excitons
# | amplitude                    # [R] Amplitude
# | BoseTemp=  0.02585     eV    # Bosonic Temperature
# | States= "1 - 20"             # Index of the BS state(s)
# | #DipWeight                   #  Weight the contribution to the exciton WFs with the dipoles
# | Degen_Step=0.1000E-4   eV    # Maximum energy separation of two degenerate states
