#                                                           
#   __   __     _        __  __       ____      U  ___  u   
#   \ \ / / U  /"\  U u |" \/ "| u U | __") u    \/"_ \/    
#    \ V /   \/ _ \/   \| |\/| |/   \|  _ \/     | | | |    
#   U_|"|_u  / ___ \    | |  | |     | |_) | .-,_| |_| |    
#     |_|   /_/   \_\   |_|  |_|     |____/   \_)-\___/     
# .-,//|(_   \\    >>  <<,-,,-.     _|| \\_        \\       
#  \_) (__) (__)  (__)  (./  \.)   (__) (__)      (__)      
#                                                           
#                                                           
#              GPL Version 4.1.4 Revision 76                
#                        MPI Build                          
#                http://www.yambo-code.org                  
#
# BSK|Identifier              :9599
#    |Dimension               :5098
#    |Bands                   :524 - 624
#    |Exchange           [res]: yes
#    |Correlation        [res]: no
#    |Kernel`s coupling       : no
#    |Exchange           [cpl]: no
#    |Correlation        [cpl]: no
#    |W interaction is bare   : no
#    |ALDA kernel in R-space  : no
#    |RL vectors    [exchange]:55207
#    |E/h energy range    [ev]:-1.000000 - -1.000000
#    |Coupling range     [o/o]: 100.0000 -  100.0000
#
# Electron-Hole pairs that contributes to Excitonic State 14 more than 5%
#
#  E    [eV]  Amplitude
#  
  2.458     0.4821E-3
  2.459     0.4841E-3
  2.460     0.4861E-3
  2.461     0.4882E-3
  2.462     0.4902E-3
  2.463     0.4923E-3
  2.464     0.4943E-3
  2.465     0.4964E-3
  2.466     0.4985E-3
  2.467     0.5006E-3
  2.468     0.5028E-3
  2.469     0.5049E-3
  2.470     0.5071E-3
  2.472     0.5092E-3
  2.473     0.5114E-3
  2.474     0.5136E-3
  2.475     0.5158E-3
  2.476     0.5181E-3
  2.477     0.5203E-3
  2.478     0.5225E-3
  2.479     0.5248E-3
  2.480     0.5271E-3
  2.481     0.5294E-3
  2.482     0.5317E-3
  2.483     0.5340E-3
  2.484     0.5364E-3
  2.485     0.5387E-3
  2.486     0.5411E-3
  2.487     0.5435E-3
  2.488     0.5459E-3
  2.489     0.5483E-3
  2.490     0.5508E-3
  2.491     0.5532E-3
  2.492     0.5557E-3
  2.493     0.5582E-3
  2.495     0.5607E-3
  2.496     0.5632E-3
  2.497     0.5658E-3
  2.498     0.5683E-3
  2.499     0.5709E-3
  2.500     0.5735E-3
  2.501     0.5761E-3
  2.502     0.5787E-3
  2.503     0.5814E-3
  2.504     0.5840E-3
  2.505     0.5867E-3
  2.506     0.5894E-3
  2.507     0.5921E-3
  2.508     0.5949E-3
  2.509     0.5976E-3
  2.510     0.6004E-3
  2.511     0.6032E-3
  2.512     0.6060E-3
  2.513     0.6088E-3
  2.514     0.6117E-3
  2.515     0.6146E-3
  2.516     0.6175E-3
  2.518     0.6204E-3
  2.519     0.6233E-3
  2.520     0.6263E-3
  2.521     0.6292E-3
  2.522     0.6322E-3
  2.523     0.6353E-3
  2.524     0.6383E-3
  2.525     0.6414E-3
  2.526     0.6445E-3
  2.527     0.6476E-3
  2.528     0.6507E-3
  2.529     0.6539E-3
  2.530     0.6570E-3
  2.531     0.6602E-3
  2.532     0.6635E-3
  2.533     0.6667E-3
  2.534     0.6700E-3
  2.535     0.6733E-3
  2.536     0.6766E-3
  2.537     0.6799E-3
  2.538     0.6833E-3
  2.540     0.6867E-3
  2.541     0.6901E-3
  2.542     0.6936E-3
  2.543     0.6970E-3
  2.544     0.7005E-3
  2.545     0.7041E-3
  2.546     0.7076E-3
  2.547     0.7112E-3
  2.548     0.7148E-3
  2.549     0.7184E-3
  2.550     0.7221E-3
  2.551     0.7258E-3
  2.552     0.7295E-3
  2.553     0.7332E-3
  2.554     0.7370E-3
  2.555     0.7408E-3
  2.556     0.7446E-3
  2.557     0.7485E-3
  2.558     0.7524E-3
  2.559     0.7563E-3
  2.560     0.7603E-3
  2.561     0.7642E-3
  2.563     0.7683E-3
  2.564     0.7723E-3
  2.565     0.7764E-3
  2.566     0.7805E-3
  2.567     0.7846E-3
  2.568     0.7888E-3
  2.569     0.7930E-3
  2.570     0.7973E-3
  2.571     0.8016E-3
  2.572     0.8059E-3
  2.573     0.8102E-3
  2.574     0.8146E-3
  2.575     0.8190E-3
  2.576     0.8235E-3
  2.577     0.8280E-3
  2.578     0.8325E-3
  2.579     0.8371E-3
  2.580     0.8417E-3
  2.581     0.8463E-3
  2.582     0.8510E-3
  2.583     0.8557E-3
  2.584     0.8605E-3
  2.586     0.8653E-3
  2.587     0.8701E-3
  2.588     0.8750E-3
  2.589     0.8799E-3
  2.590     0.8849E-3
  2.591     0.8899E-3
  2.592     0.8949E-3
  2.593     0.9000E-3
  2.594     0.9052E-3
  2.595     0.9103E-3
  2.596     0.9156E-3
  2.597     0.9208E-3
  2.598     0.9262E-3
  2.599     0.9315E-3
  2.600     0.9369E-3
  2.601     0.9424E-3
  2.602     0.9479E-3
  2.603     0.9534E-3
  2.604     0.9590E-3
  2.605     0.9647E-3
  2.606     0.9704E-3
  2.608     0.9761E-3
  2.609     0.9819E-3
  2.610     0.9878E-3
  2.611     0.9937E-3
  2.612     0.9996E-3
  2.613     0.1006E-2
  2.614     0.1012E-2
  2.615     0.1018E-2
  2.616     0.1024E-2
  2.617     0.1030E-2
  2.618     0.1037E-2
  2.619     0.1043E-2
  2.620     0.1049E-2
  2.621     0.1056E-2
  2.622     0.1062E-2
  2.623     0.1069E-2
  2.624     0.1076E-2
  2.625     0.1082E-2
  2.626     0.1089E-2
  2.627     0.1096E-2
  2.628     0.1103E-2
  2.629     0.1110E-2
  2.631     0.1117E-2
  2.632     0.1124E-2
  2.633     0.1131E-2
  2.634     0.1138E-2
  2.635     0.1146E-2
  2.636     0.1153E-2
  2.637     0.1160E-2
  2.638     0.1168E-2
  2.639     0.1176E-2
  2.640     0.1183E-2
  2.641     0.1191E-2
  2.642     0.1199E-2
  2.643     0.1207E-2
  2.644     0.1215E-2
  2.645     0.1223E-2
  2.646     0.1231E-2
  2.647     0.1239E-2
  2.648     0.1247E-2
  2.649     0.1256E-2
  2.650     0.1264E-2
  2.651     0.1273E-2
  2.652     0.1281E-2
  2.654     0.1290E-2
  2.655     0.1299E-2
  2.656     0.1308E-2
  2.657     0.1317E-2
  2.658     0.1326E-2
  2.659     0.1335E-2
  2.660     0.1344E-2
  2.661     0.1354E-2
  2.662     0.1363E-2
  2.663     0.1373E-2
  2.664     0.1383E-2
  2.665     0.1392E-2
  2.666     0.1402E-2
  2.667     0.1412E-2
  2.668     0.1422E-2
  2.669     0.1433E-2
  2.670     0.1443E-2
  2.671     0.1453E-2
  2.672     0.1464E-2
  2.673     0.1475E-2
  2.674     0.1485E-2
  2.675     0.1496E-2
  2.677     0.1507E-2
  2.678     0.1518E-2
  2.679     0.1530E-2
  2.680     0.1541E-2
  2.681     0.1553E-2
  2.682     0.1564E-2
  2.683     0.1576E-2
  2.684     0.1588E-2
  2.685     0.1600E-2
  2.686     0.1612E-2
  2.687     0.1625E-2
  2.688     0.1637E-2
  2.689     0.1650E-2
  2.690     0.1662E-2
  2.691     0.1675E-2
  2.692     0.1688E-2
  2.693     0.1702E-2
  2.694     0.1715E-2
  2.695     0.1728E-2
  2.696     0.1742E-2
  2.697     0.1756E-2
  2.699     0.1770E-2
  2.700     0.1784E-2
  2.701     0.1799E-2
  2.702     0.1813E-2
  2.703     0.1828E-2
  2.704     0.1843E-2
  2.705     0.1858E-2
  2.706     0.1873E-2
  2.707     0.1889E-2
  2.708     0.1904E-2
  2.709     0.1920E-2
  2.710     0.1936E-2
  2.711     0.1952E-2
  2.712     0.1969E-2
  2.713     0.1985E-2
  2.714     0.2002E-2
  2.715     0.2019E-2
  2.716     0.2037E-2
  2.717     0.2054E-2
  2.718     0.2072E-2
  2.719     0.2090E-2
  2.720     0.2108E-2
  2.722     0.2127E-2
  2.723     0.2145E-2
  2.724     0.2164E-2
  2.725     0.2183E-2
  2.726     0.2203E-2
  2.727     0.2223E-2
  2.728     0.2243E-2
  2.729     0.2263E-2
  2.730     0.2283E-2
  2.731     0.2304E-2
  2.732     0.2325E-2
  2.733     0.2347E-2
  2.734     0.2368E-2
  2.735     0.2390E-2
  2.736     0.2413E-2
  2.737     0.2435E-2
  2.738     0.2458E-2
  2.739     0.2482E-2
  2.740     0.2505E-2
  2.741     0.2529E-2
  2.742     0.2553E-2
  2.743     0.2578E-2
  2.745     0.2603E-2
  2.746     0.2628E-2
  2.747     0.2654E-2
  2.748     0.2680E-2
  2.749     0.2707E-2
  2.750     0.2734E-2
    2.7508     0.0028
    2.7519     0.0028
    2.7529     0.0028
    2.7540     0.0028
    2.7550     0.0029
    2.7560     0.0029
    2.7571     0.0029
    2.7581     0.0030
    2.7592     0.0030
    2.7602     0.0030
    2.7613     0.0031
    2.7623     0.0031
    2.7634     0.0031
    2.7644     0.0032
    2.7655     0.0032
    2.7665     0.0032
    2.7675     0.0033
    2.7686     0.0033
    2.7696     0.0033
    2.7707     0.0034
    2.7717     0.0034
    2.7728     0.0034
    2.7738     0.0035
    2.7749     0.0035
    2.7759     0.0036
    2.7770     0.0036
    2.7780     0.0036
    2.7791     0.0037
    2.7801     0.0037
    2.7811     0.0038
    2.7822     0.0038
    2.7832     0.0039
    2.7843     0.0039
    2.7853     0.0040
    2.7864     0.0040
    2.7874     0.0040
    2.7885     0.0041
    2.7895     0.0041
    2.7906     0.0042
    2.7916     0.0043
    2.7927     0.0043
    2.7937     0.0044
    2.7947     0.0044
    2.7958     0.0045
    2.7968     0.0045
    2.7979     0.0046
    2.7989     0.0046
    2.8000     0.0047
    2.8010     0.0048
    2.8021     0.0048
    2.8031     0.0049
    2.8042     0.0050
    2.8052     0.0050
    2.8063     0.0051
    2.8073     0.0052
    2.8083     0.0052
    2.8094     0.0053
    2.8104     0.0054
    2.8115     0.0055
    2.8125     0.0055
    2.8136     0.0056
    2.8146     0.0057
    2.8157     0.0058
    2.8167     0.0059
    2.8178     0.0059
    2.8188     0.0060
    2.8199     0.0061
    2.8209     0.0062
    2.8219     0.0063
    2.8230     0.0064
    2.8240     0.0065
    2.8251     0.0066
    2.8261     0.0067
    2.8272     0.0068
    2.8282     0.0069
    2.8293     0.0070
    2.8303     0.0071
    2.8314     0.0073
    2.8324     0.0074
    2.8334     0.0075
    2.8345     0.0076
    2.8355     0.0078
    2.8366     0.0079
    2.8376     0.0080
    2.8387     0.0082
    2.8397     0.0083
    2.8408     0.0084
    2.8418     0.0086
    2.8429     0.0088
    2.8439     0.0089
    2.8450     0.0091
    2.8460     0.0092
    2.8470     0.0094
    2.8481     0.0096
    2.8491     0.0098
    2.8502     0.0099
   2.85123    0.01014
   2.85228    0.01034
   2.85332    0.01054
   2.85437    0.01075
   2.85542    0.01096
   2.85646    0.01118
   2.85751    0.01141
   2.85855    0.01165
   2.85960    0.01189
   2.86065    0.01214
   2.86169    0.01240
   2.86274    0.01266
   2.86379    0.01294
   2.86483    0.01322
   2.86588    0.01351
   2.86692    0.01382
   2.86797    0.01413
   2.86902    0.01445
   2.87006    0.01479
   2.87111    0.01514
   2.87215    0.01550
   2.87320    0.01587
   2.87425    0.01625
   2.87529    0.01665
   2.87634    0.01707
   2.87738    0.01750
   2.87843    0.01795
   2.87948    0.01841
   2.88052    0.01890
   2.88157    0.01940
   2.88261    0.01992
   2.88366    0.02047
   2.88471    0.02103
   2.88575    0.02162
   2.88680    0.02224
   2.88784    0.02288
   2.88889    0.02355
   2.88994    0.02425
   2.89098    0.02498
   2.89203    0.02575
   2.89307    0.02655
   2.89412    0.02739
   2.89517    0.02827
   2.89621    0.02919
   2.89726    0.03015
   2.89830    0.03117
   2.89935    0.03224
   2.90040    0.03336
   2.90144    0.03454
   2.90249    0.03579
   2.90353    0.03711
   2.90458    0.03849
   2.90563    0.03996
   2.90667    0.04151
   2.90772    0.04316
   2.90876    0.04490
   2.90981    0.04675
   2.91086    0.04871
   2.91190    0.05080
   2.91295    0.05302
   2.91400    0.05539
   2.91504    0.05793
   2.91609    0.06063
   2.91713    0.06353
   2.91818    0.06664
   2.91923    0.06998
   2.92027    0.07357
   2.92132    0.07744
   2.92236    0.08161
   2.92341    0.08613
   2.92446    0.09102
   2.92550    0.09632
  2.926548   0.102090
  2.927594   0.108375
  2.928640   0.115238
  2.929686   0.122747
  2.930732   0.130982
  2.931778   0.140036
  2.932824   0.150013
  2.933870   0.161030
  2.934916   0.173232
  2.935962   0.186773
  2.937008   0.201839
  2.938054   0.218646
  2.939100   0.237432
  2.940146   0.258471
  2.941192   0.282081
  2.942238   0.308603
  2.943284   0.338428
  2.944330   0.371949
  2.945376   0.409588
  2.946422   0.451710
  2.947469   0.498627
  2.948514   0.550443
  2.949561   0.607005
  2.950607   0.667657
  2.951653   0.731136
  2.952699   0.795293
  2.953745   0.857091
  2.954791   0.912597
  2.955837   0.957471
  2.956883   0.987589
  2.957929   1.000000
  2.958975   0.993640
  2.960021   0.969646
  2.961067   0.931048
  2.962113   0.881958
  2.963159   0.826728
  2.964205   0.769148
  2.965251   0.712131
  2.966297   0.657578
  2.967343   0.606480
  2.968389   0.559160
  2.969435   0.515549
  2.970481   0.475349
  2.971528   0.438267
  2.972574   0.404079
  2.973619   0.372638
  2.974666   0.343864
  2.975712   0.317711
  2.976758   0.294122
  2.977804   0.272996
  2.978850   0.254225
  2.979896   0.237661
  2.980942   0.223163
  2.981988   0.210575
  2.983034   0.199758
  2.984080   0.190571
  2.985126   0.182883
  2.986172   0.176560
  2.987218   0.171460
  2.988264   0.167418
  2.989310   0.164241
  2.990356   0.161693
  2.991402   0.159505
  2.992448   0.157390
  2.993494   0.155082
  2.994540   0.152375
  2.995586   0.149164
  2.996633   0.145452
  2.997679   0.141328
  2.998724   0.136918
  2.999770   0.132335
  3.000817   0.127641
  3.001863   0.122840
  3.002909   0.117897
  3.003955   0.112769
  3.005001   0.107439
  3.006047   0.101939
   3.00709    0.09634
   3.00814    0.09076
   3.00919    0.08531
   3.01023    0.08006
   3.01128    0.07511
   3.01232    0.07048
   3.01337    0.06620
   3.01442    0.06226
   3.01546    0.05865
   3.01651    0.05535
   3.01755    0.05232
   3.01860    0.04956
   3.01965    0.04703
   3.02069    0.04470
   3.02174    0.04257
   3.02278    0.04060
   3.02383    0.03878
   3.02488    0.03709
   3.02592    0.03553
   3.02697    0.03407
   3.02801    0.03271
   3.02906    0.03145
   3.03011    0.03026
   3.03115    0.02915
   3.03220    0.02810
   3.03324    0.02712
   3.03429    0.02619
   3.03534    0.02531
   3.03638    0.02448
   3.03743    0.02370
   3.03847    0.02296
   3.03952    0.02225
   3.04057    0.02158
   3.04161    0.02094
   3.04266    0.02033
   3.04370    0.01975
   3.04475    0.01919
   3.04580    0.01866
   3.04684    0.01816
   3.04789    0.01767
   3.04893    0.01721
   3.04998    0.01676
   3.05103    0.01633
   3.05207    0.01592
   3.05312    0.01553
   3.05416    0.01515
   3.05521    0.01479
   3.05626    0.01444
   3.05730    0.01410
   3.05835    0.01377
   3.05940    0.01346
   3.06044    0.01315
   3.06149    0.01286
   3.06253    0.01258
   3.06358    0.01231
   3.06463    0.01204
   3.06567    0.01179
   3.06672    0.01154
   3.06776    0.01130
   3.06881    0.01107
   3.06986    0.01085
   3.07090    0.01063
   3.07195    0.01042
   3.07299    0.01021
   3.07404    0.01002
    3.0751     0.0098
    3.0761     0.0096
    3.0772     0.0095
    3.0782     0.0093
    3.0793     0.0091
    3.0803     0.0089
    3.0814     0.0088
    3.0824     0.0086
    3.0835     0.0085
    3.0845     0.0083
    3.0855     0.0082
    3.0866     0.0080
    3.0876     0.0079
    3.0887     0.0078
    3.0897     0.0076
    3.0908     0.0075
    3.0918     0.0074
    3.0929     0.0073
    3.0939     0.0071
    3.0950     0.0070
    3.0960     0.0069
    3.0971     0.0068
    3.0981     0.0067
    3.0991     0.0066
    3.1002     0.0065
    3.1012     0.0064
    3.1023     0.0063
    3.1033     0.0062
    3.1044     0.0061
    3.1054     0.0060
    3.1065     0.0059
    3.1075     0.0058
    3.1086     0.0058
    3.1096     0.0057
    3.1107     0.0056
    3.1117     0.0055
    3.1127     0.0054
    3.1138     0.0054
    3.1148     0.0053
    3.1159     0.0052
    3.1169     0.0051
    3.1180     0.0051
    3.1190     0.0050
    3.1201     0.0049
    3.1211     0.0049
    3.1222     0.0048
    3.1232     0.0047
    3.1242     0.0047
    3.1253     0.0046
    3.1263     0.0046
    3.1274     0.0045
    3.1284     0.0044
    3.1295     0.0044
    3.1305     0.0043
    3.1316     0.0043
    3.1326     0.0042
    3.1337     0.0042
    3.1347     0.0041
    3.1358     0.0041
    3.1368     0.0040
    3.1378     0.0040
    3.1389     0.0039
    3.1399     0.0039
    3.1410     0.0038
    3.1420     0.0038
    3.1431     0.0038
    3.1441     0.0037
    3.1452     0.0037
    3.1462     0.0036
    3.1473     0.0036
    3.1483     0.0035
    3.1494     0.0035
    3.1504     0.0035
    3.1514     0.0034
    3.1525     0.0034
    3.1535     0.0033
    3.1546     0.0033
    3.1556     0.0033
    3.1567     0.0032
    3.1577     0.0032
    3.1588     0.0032
  3.160     0.3139E-2
  3.161     0.3105E-2
  3.162     0.3073E-2
  3.163     0.3041E-2
  3.164     0.3009E-2
  3.165     0.2978E-2
  3.166     0.2947E-2
  3.167     0.2917E-2
  3.168     0.2887E-2
  3.169     0.2858E-2
  3.170     0.2829E-2
  3.171     0.2801E-2
  3.172     0.2773E-2
  3.173     0.2745E-2
  3.174     0.2718E-2
  3.176     0.2691E-2
  3.177     0.2665E-2
  3.178     0.2639E-2
  3.179     0.2613E-2
  3.180     0.2588E-2
  3.181     0.2563E-2
  3.182     0.2539E-2
  3.183     0.2515E-2
  3.184     0.2491E-2
  3.185     0.2467E-2
  3.186     0.2444E-2
  3.187     0.2421E-2
  3.188     0.2399E-2
  3.189     0.2377E-2
  3.190     0.2355E-2
  3.191     0.2333E-2
  3.192     0.2312E-2
  3.193     0.2291E-2
  3.194     0.2270E-2
  3.195     0.2250E-2
  3.196     0.2230E-2
  3.197     0.2210E-2
  3.199     0.2190E-2
  3.200     0.2171E-2
  3.201     0.2152E-2
  3.202     0.2133E-2
  3.203     0.2115E-2
  3.204     0.2096E-2
  3.205     0.2078E-2
  3.206     0.2060E-2
  3.207     0.2043E-2
  3.208     0.2025E-2
  3.209     0.2008E-2
  3.210     0.1991E-2
  3.211     0.1974E-2
  3.212     0.1958E-2
  3.213     0.1941E-2
  3.214     0.1925E-2
  3.215     0.1909E-2
  3.216     0.1894E-2
  3.217     0.1878E-2
  3.218     0.1863E-2
  3.219     0.1848E-2
  3.220     0.1833E-2
  3.222     0.1818E-2
  3.223     0.1803E-2
  3.224     0.1789E-2
  3.225     0.1774E-2
  3.226     0.1760E-2
  3.227     0.1746E-2
  3.228     0.1733E-2
  3.229     0.1719E-2
  3.230     0.1706E-2
  3.231     0.1692E-2
  3.232     0.1679E-2
  3.233     0.1666E-2
  3.234     0.1653E-2
  3.235     0.1641E-2
  3.236     0.1628E-2
  3.237     0.1616E-2
  3.238     0.1604E-2
  3.239     0.1591E-2
  3.240     0.1579E-2
  3.241     0.1568E-2
  3.242     0.1556E-2
  3.243     0.1544E-2
  3.245     0.1533E-2
  3.246     0.1522E-2
  3.247     0.1510E-2
  3.248     0.1499E-2
  3.249     0.1488E-2
  3.250     0.1478E-2
  3.251     0.1467E-2
  3.252     0.1456E-2
  3.253     0.1446E-2
  3.254     0.1435E-2
  3.255     0.1425E-2
  3.256     0.1415E-2
  3.257     0.1405E-2
  3.258     0.1395E-2
  3.259     0.1385E-2
  3.260     0.1375E-2
  3.261     0.1366E-2
  3.262     0.1356E-2
  3.263     0.1347E-2
  3.264     0.1338E-2
  3.265     0.1328E-2
  3.267     0.1319E-2
  3.268     0.1310E-2
  3.269     0.1301E-2
  3.270     0.1292E-2
  3.271     0.1284E-2
  3.272     0.1275E-2
  3.273     0.1266E-2
  3.274     0.1258E-2
  3.275     0.1249E-2
  3.276     0.1241E-2
  3.277     0.1233E-2
  3.278     0.1225E-2
  3.279     0.1217E-2
  3.280     0.1209E-2
  3.281     0.1201E-2
  3.282     0.1193E-2
  3.283     0.1185E-2
  3.284     0.1177E-2
  3.285     0.1170E-2
  3.286     0.1162E-2
  3.287     0.1155E-2
  3.288     0.1147E-2
  3.290     0.1140E-2
  3.291     0.1133E-2
  3.292     0.1126E-2
  3.293     0.1118E-2
  3.294     0.1111E-2
  3.295     0.1104E-2
  3.296     0.1097E-2
  3.297     0.1091E-2
  3.298     0.1084E-2
  3.299     0.1077E-2
  3.300     0.1070E-2
  3.301     0.1064E-2
  3.302     0.1057E-2
  3.303     0.1051E-2
  3.304     0.1044E-2
  3.305     0.1038E-2
  3.306     0.1032E-2
  3.307     0.1025E-2
  3.308     0.1019E-2
  3.309     0.1013E-2
  3.310     0.1007E-2
  3.311     0.1001E-2
  3.313     0.9950E-3
  3.314     0.9890E-3
  3.315     0.9832E-3
  3.316     0.9774E-3
  3.317     0.9716E-3
  3.318     0.9659E-3
  3.319     0.9602E-3
  3.320     0.9546E-3
  3.321     0.9490E-3
  3.322     0.9435E-3
  3.323     0.9381E-3
  3.324     0.9326E-3
  3.325     0.9273E-3
  3.326     0.9219E-3
  3.327     0.9167E-3
  3.328     0.9114E-3
  3.329     0.9062E-3
  3.330     0.9011E-3
  3.331     0.8960E-3
  3.332     0.8909E-3
  3.333     0.8859E-3
  3.335     0.8809E-3
  3.336     0.8760E-3
  3.337     0.8711E-3
  3.338     0.8663E-3
  3.339     0.8614E-3
  3.340     0.8567E-3
  3.341     0.8519E-3
  3.342     0.8473E-3
  3.343     0.8426E-3
  3.344     0.8380E-3
  3.345     0.8334E-3
  3.346     0.8289E-3
  3.347     0.8244E-3
  3.348     0.8199E-3
  3.349     0.8155E-3
  3.350     0.8111E-3
  3.351     0.8067E-3
  3.352     0.8024E-3
  3.353     0.7981E-3
  3.354     0.7939E-3
  3.355     0.7896E-3
  3.356     0.7854E-3
  3.358     0.7813E-3
  3.359     0.7772E-3
  3.360     0.7731E-3
  3.361     0.7690E-3
  3.362     0.7650E-3
  3.363     0.7610E-3
  3.364     0.7571E-3
  3.365     0.7531E-3
  3.366     0.7492E-3
  3.367     0.7454E-3
  3.368     0.7415E-3
  3.369     0.7377E-3
  3.370     0.7339E-3
  3.371     0.7302E-3
  3.372     0.7264E-3
  3.373     0.7228E-3
  3.374     0.7191E-3
  3.375     0.7154E-3
  3.376     0.7118E-3
  3.377     0.7083E-3
  3.378     0.7047E-3
  3.379     0.7012E-3
  3.381     0.6977E-3
  3.382     0.6942E-3
  3.383     0.6907E-3
  3.384     0.6873E-3
  3.385     0.6839E-3
  3.386     0.6805E-3
  3.387     0.6772E-3
  3.388     0.6739E-3
  3.389     0.6706E-3
  3.390     0.6673E-3
  3.391     0.6640E-3
  3.392     0.6608E-3
  3.393     0.6576E-3
  3.394     0.6544E-3
  3.395     0.6513E-3
  3.396     0.6481E-3
  3.397     0.6450E-3
  3.398     0.6419E-3
  3.399     0.6388E-3
  3.400     0.6358E-3
  3.401     0.6328E-3
  3.402     0.6298E-3
  3.404     0.6268E-3
  3.405     0.6238E-3
  3.406     0.6209E-3
  3.407     0.6180E-3
  3.408     0.6151E-3
  3.409     0.6122E-3
  3.410     0.6093E-3
  3.411     0.6065E-3
  3.412     0.6037E-3
  3.413     0.6009E-3
  3.414     0.5981E-3
  3.415     0.5953E-3
  3.416     0.5926E-3
  3.417     0.5899E-3
  3.418     0.5872E-3
  3.419     0.5845E-3
  3.420     0.5818E-3
  3.421     0.5792E-3
  3.422     0.5765E-3
  3.423     0.5739E-3
  3.424     0.5713E-3
  3.426     0.5687E-3
  3.427     0.5662E-3
  3.428     0.5636E-3
  3.429     0.5611E-3
  3.430     0.5586E-3
  3.431     0.5561E-3
  3.432     0.5536E-3
  3.433     0.5512E-3
  3.434     0.5487E-3
  3.435     0.5463E-3
  3.436     0.5439E-3
  3.437     0.5415E-3
  3.438     0.5391E-3
  3.439     0.5368E-3
  3.440     0.5344E-3
  3.441     0.5321E-3
  3.442     0.5298E-3
  3.443     0.5275E-3
  3.444     0.5252E-3
  3.445     0.5229E-3
  3.446     0.5207E-3
  3.447     0.5184E-3
  3.449     0.5162E-3
  3.450     0.5140E-3
  3.451     0.5118E-3
  3.452     0.5096E-3
  3.453     0.5074E-3
  3.454     0.5053E-3
  3.455     0.5031E-3
  3.456     0.5010E-3
  3.457     0.4989E-3
  3.458     0.4968E-3
  3.459     0.4947E-3
  3.460     0.4926E-3
  3.461     0.4905E-3
  3.462     0.4885E-3
  3.463     0.4864E-3
  3.464     0.4844E-3
  3.465     0.4824E-3
  3.466     0.4804E-3
  3.467     0.4784E-3
  3.468     0.4764E-3
  3.469     0.4745E-3
  3.470     0.4725E-3
  3.472     0.4706E-3
  3.473     0.4687E-3
  3.474     0.4668E-3
  3.475     0.4648E-3
  3.476     0.4630E-3
  3.477     0.4611E-3
  3.478     0.4592E-3
  3.479     0.4573E-3
  3.480     0.4555E-3
  3.481     0.4537E-3
  3.482     0.4518E-3
  3.483     0.4500E-3
  3.484     0.4482E-3
  3.485     0.4464E-3
  3.486     0.4447E-3
  3.487     0.4429E-3
  3.488     0.4411E-3
  3.489     0.4394E-3
  3.490     0.4376E-3
  3.491     0.4359E-3
  3.492     0.4342E-3
  3.494     0.4325E-3
  3.495     0.4308E-3
  3.496     0.4291E-3
  3.497     0.4274E-3
  3.498     0.4258E-3
  3.499     0.4241E-3
  3.500     0.4224E-3
  3.501     0.4208E-3
  3.502     0.4192E-3
  3.503     0.4176E-3
# 
# 06/20/2019 at 00:18 YPP @ br018.pvt.bridges.psc.edu [start]
# 06/20/2019 at 00:19                                 [end]
#  
# Timing   [Min/Max/Average]: 02s/02s/02s
#
# .-Input file : amp.in
# | excitons                     # [R] Excitons
# | amplitude                    # [R] Amplitude
# | BoseTemp=  0.02585     eV    # Bosonic Temperature
# | States= "1 - 20"             # Index of the BS state(s)
# | #DipWeight                   #  Weight the contribution to the exciton WFs with the dipoles
# | Degen_Step=0.1000E-4   eV    # Maximum energy separation of two degenerate states
