#                                                           
#   __   __     _        __  __       ____      U  ___  u   
#   \ \ / / U  /"\  U u |" \/ "| u U | __") u    \/"_ \/    
#    \ V /   \/ _ \/   \| |\/| |/   \|  _ \/     | | | |    
#   U_|"|_u  / ___ \    | |  | |     | |_) | .-,_| |_| |    
#     |_|   /_/   \_\   |_|  |_|     |____/   \_)-\___/     
# .-,//|(_   \\    >>  <<,-,,-.     _|| \\_        \\       
#  \_) (__) (__)  (__)  (./  \.)   (__) (__)      (__)      
#                                                           
#                                                           
#              GPL Version 4.1.4 Revision 76                
#                        MPI Build                          
#                http://www.yambo-code.org                  
#
# BSK|Identifier              :9599
#    |Dimension               :5098
#    |Bands                   :524 - 624
#    |Exchange           [res]: yes
#    |Correlation        [res]: no
#    |Kernel`s coupling       : no
#    |Exchange           [cpl]: no
#    |Correlation        [cpl]: no
#    |W interaction is bare   : no
#    |ALDA kernel in R-space  : no
#    |RL vectors    [exchange]:55207
#    |E/h energy range    [ev]:-1.000000 - -1.000000
#    |Coupling range     [o/o]: 100.0000 -  100.0000
#
# Electron-Hole pairs that contributes to Excitonic State 20 more than 5%
#
#  E    [eV]  Amplitude
#  
  2.458     0.5829E-3
  2.459     0.5854E-3
  2.460     0.5880E-3
  2.461     0.5905E-3
  2.463     0.5930E-3
  2.464     0.5956E-3
  2.465     0.5982E-3
  2.466     0.6008E-3
  2.467     0.6034E-3
  2.468     0.6060E-3
  2.470     0.6087E-3
  2.471     0.6113E-3
  2.472     0.6140E-3
  2.473     0.6167E-3
  2.474     0.6194E-3
  2.475     0.6222E-3
  2.477     0.6249E-3
  2.478     0.6277E-3
  2.479     0.6305E-3
  2.480     0.6333E-3
  2.481     0.6361E-3
  2.482     0.6390E-3
  2.484     0.6418E-3
  2.485     0.6447E-3
  2.486     0.6476E-3
  2.487     0.6505E-3
  2.488     0.6535E-3
  2.489     0.6565E-3
  2.491     0.6594E-3
  2.492     0.6624E-3
  2.493     0.6655E-3
  2.494     0.6685E-3
  2.495     0.6716E-3
  2.497     0.6747E-3
  2.498     0.6778E-3
  2.499     0.6809E-3
  2.500     0.6841E-3
  2.501     0.6873E-3
  2.502     0.6904E-3
  2.504     0.6937E-3
  2.505     0.6969E-3
  2.506     0.7002E-3
  2.507     0.7035E-3
  2.508     0.7068E-3
  2.509     0.7101E-3
  2.511     0.7135E-3
  2.512     0.7169E-3
  2.513     0.7203E-3
  2.514     0.7237E-3
  2.515     0.7272E-3
  2.516     0.7306E-3
  2.518     0.7341E-3
  2.519     0.7377E-3
  2.520     0.7412E-3
  2.521     0.7448E-3
  2.522     0.7484E-3
  2.523     0.7521E-3
  2.525     0.7557E-3
  2.526     0.7594E-3
  2.527     0.7631E-3
  2.528     0.7669E-3
  2.529     0.7707E-3
  2.530     0.7745E-3
  2.532     0.7783E-3
  2.533     0.7821E-3
  2.534     0.7860E-3
  2.535     0.7899E-3
  2.536     0.7939E-3
  2.537     0.7978E-3
  2.539     0.8019E-3
  2.540     0.8059E-3
  2.541     0.8099E-3
  2.542     0.8140E-3
  2.543     0.8182E-3
  2.544     0.8223E-3
  2.546     0.8265E-3
  2.547     0.8307E-3
  2.548     0.8350E-3
  2.549     0.8393E-3
  2.550     0.8436E-3
  2.551     0.8480E-3
  2.553     0.8523E-3
  2.554     0.8568E-3
  2.555     0.8612E-3
  2.556     0.8657E-3
  2.557     0.8702E-3
  2.558     0.8748E-3
  2.560     0.8794E-3
  2.561     0.8840E-3
  2.562     0.8887E-3
  2.563     0.8934E-3
  2.564     0.8981E-3
  2.565     0.9029E-3
  2.567     0.9078E-3
  2.568     0.9126E-3
  2.569     0.9175E-3
  2.570     0.9225E-3
  2.571     0.9274E-3
  2.573     0.9325E-3
  2.574     0.9375E-3
  2.575     0.9426E-3
  2.576     0.9478E-3
  2.577     0.9529E-3
  2.578     0.9582E-3
  2.580     0.9634E-3
  2.581     0.9688E-3
  2.582     0.9741E-3
  2.583     0.9795E-3
  2.584     0.9850E-3
  2.585     0.9905E-3
  2.587     0.9960E-3
  2.588     0.1002E-2
  2.589     0.1007E-2
  2.590     0.1013E-2
  2.591     0.1019E-2
  2.592     0.1024E-2
  2.594     0.1030E-2
  2.595     0.1036E-2
  2.596     0.1042E-2
  2.597     0.1048E-2
  2.598     0.1054E-2
  2.599     0.1060E-2
  2.601     0.1066E-2
  2.602     0.1073E-2
  2.603     0.1079E-2
  2.604     0.1085E-2
  2.605     0.1091E-2
  2.606     0.1098E-2
  2.608     0.1104E-2
  2.609     0.1111E-2
  2.610     0.1117E-2
  2.611     0.1124E-2
  2.612     0.1131E-2
  2.613     0.1138E-2
  2.615     0.1144E-2
  2.616     0.1151E-2
  2.617     0.1158E-2
  2.618     0.1165E-2
  2.619     0.1172E-2
  2.620     0.1179E-2
  2.622     0.1187E-2
  2.623     0.1194E-2
  2.624     0.1201E-2
  2.625     0.1209E-2
  2.626     0.1216E-2
  2.627     0.1224E-2
  2.629     0.1231E-2
  2.630     0.1239E-2
  2.631     0.1247E-2
  2.632     0.1255E-2
  2.633     0.1262E-2
  2.634     0.1270E-2
  2.636     0.1279E-2
  2.637     0.1287E-2
  2.638     0.1295E-2
  2.639     0.1303E-2
  2.640     0.1312E-2
  2.641     0.1320E-2
  2.643     0.1329E-2
  2.644     0.1337E-2
  2.645     0.1346E-2
  2.646     0.1355E-2
  2.647     0.1364E-2
  2.649     0.1373E-2
  2.650     0.1382E-2
  2.651     0.1391E-2
  2.652     0.1400E-2
  2.653     0.1409E-2
  2.654     0.1419E-2
  2.656     0.1428E-2
  2.657     0.1438E-2
  2.658     0.1448E-2
  2.659     0.1457E-2
  2.660     0.1467E-2
  2.661     0.1477E-2
  2.663     0.1487E-2
  2.664     0.1498E-2
  2.665     0.1508E-2
  2.666     0.1518E-2
  2.667     0.1529E-2
  2.668     0.1540E-2
  2.670     0.1550E-2
  2.671     0.1561E-2
  2.672     0.1572E-2
  2.673     0.1583E-2
  2.674     0.1595E-2
  2.675     0.1606E-2
  2.677     0.1617E-2
  2.678     0.1629E-2
  2.679     0.1641E-2
  2.680     0.1653E-2
  2.681     0.1665E-2
  2.682     0.1677E-2
  2.684     0.1689E-2
  2.685     0.1701E-2
  2.686     0.1714E-2
  2.687     0.1726E-2
  2.688     0.1739E-2
  2.689     0.1752E-2
  2.691     0.1765E-2
  2.692     0.1778E-2
  2.693     0.1792E-2
  2.694     0.1805E-2
  2.695     0.1819E-2
  2.696     0.1833E-2
  2.698     0.1847E-2
  2.699     0.1861E-2
  2.700     0.1875E-2
  2.701     0.1890E-2
  2.702     0.1905E-2
  2.703     0.1919E-2
  2.705     0.1934E-2
  2.706     0.1950E-2
  2.707     0.1965E-2
  2.708     0.1980E-2
  2.709     0.1996E-2
  2.710     0.2012E-2
  2.712     0.2028E-2
  2.713     0.2045E-2
  2.714     0.2061E-2
  2.715     0.2078E-2
  2.716     0.2095E-2
  2.717     0.2112E-2
  2.719     0.2129E-2
  2.720     0.2147E-2
  2.721     0.2164E-2
  2.722     0.2182E-2
  2.723     0.2201E-2
  2.725     0.2219E-2
  2.726     0.2238E-2
  2.727     0.2257E-2
  2.728     0.2276E-2
  2.729     0.2295E-2
  2.730     0.2315E-2
  2.732     0.2335E-2
  2.733     0.2355E-2
  2.734     0.2375E-2
  2.735     0.2396E-2
  2.736     0.2417E-2
  2.737     0.2438E-2
  2.739     0.2460E-2
  2.740     0.2482E-2
  2.741     0.2504E-2
  2.742     0.2526E-2
  2.743     0.2549E-2
  2.744     0.2572E-2
  2.746     0.2595E-2
  2.747     0.2619E-2
  2.748     0.2643E-2
  2.749     0.2667E-2
  2.750     0.2692E-2
  2.751     0.2717E-2
  2.753     0.2742E-2
    2.7537     0.0028
    2.7549     0.0028
    2.7561     0.0028
    2.7572     0.0028
    2.7584     0.0029
    2.7596     0.0029
    2.7607     0.0029
    2.7619     0.0030
    2.7631     0.0030
    2.7643     0.0030
    2.7654     0.0030
    2.7666     0.0031
    2.7678     0.0031
    2.7689     0.0031
    2.7701     0.0032
    2.7713     0.0032
    2.7724     0.0032
    2.7736     0.0033
    2.7748     0.0033
    2.7759     0.0033
    2.7771     0.0034
    2.7783     0.0034
    2.7795     0.0034
    2.7806     0.0035
    2.7818     0.0035
    2.7830     0.0036
    2.7841     0.0036
    2.7853     0.0036
    2.7865     0.0037
    2.7876     0.0037
    2.7888     0.0037
    2.7900     0.0038
    2.7911     0.0038
    2.7923     0.0039
    2.7935     0.0039
    2.7947     0.0040
    2.7958     0.0040
    2.7970     0.0041
    2.7982     0.0041
    2.7993     0.0041
    2.8005     0.0042
    2.8017     0.0042
    2.8028     0.0043
    2.8040     0.0043
    2.8052     0.0044
    2.8063     0.0044
    2.8075     0.0045
    2.8087     0.0046
    2.8099     0.0046
    2.8110     0.0047
    2.8122     0.0047
    2.8134     0.0048
    2.8145     0.0048
    2.8157     0.0049
    2.8169     0.0050
    2.8180     0.0050
    2.8192     0.0051
    2.8204     0.0052
    2.8215     0.0052
    2.8227     0.0053
    2.8239     0.0054
    2.8251     0.0054
    2.8262     0.0055
    2.8274     0.0056
    2.8286     0.0057
    2.8297     0.0057
    2.8309     0.0058
    2.8321     0.0059
    2.8332     0.0060
    2.8344     0.0061
    2.8356     0.0061
    2.8367     0.0062
    2.8379     0.0063
    2.8391     0.0064
    2.8403     0.0065
    2.8414     0.0066
    2.8426     0.0067
    2.8438     0.0068
    2.8449     0.0069
    2.8461     0.0070
    2.8473     0.0071
    2.8484     0.0072
    2.8496     0.0073
    2.8508     0.0074
    2.8519     0.0076
    2.8531     0.0077
    2.8543     0.0078
    2.8555     0.0079
    2.8566     0.0081
    2.8578     0.0082
    2.8590     0.0083
    2.8601     0.0085
    2.8613     0.0086
    2.8625     0.0088
    2.8636     0.0089
    2.8648     0.0091
    2.8660     0.0092
    2.8671     0.0094
    2.8683     0.0095
    2.8695     0.0097
    2.8707     0.0099
   2.87182    0.01007
   2.87299    0.01026
   2.87416    0.01045
   2.87533    0.01065
   2.87650    0.01085
   2.87767    0.01106
   2.87884    0.01128
   2.88001    0.01150
   2.88117    0.01173
   2.88234    0.01196
   2.88351    0.01221
   2.88468    0.01246
   2.88585    0.01272
   2.88702    0.01298
   2.88819    0.01326
   2.88936    0.01355
   2.89053    0.01384
   2.89170    0.01415
   2.89287    0.01447
   2.89404    0.01479
   2.89521    0.01513
   2.89637    0.01548
   2.89754    0.01585
   2.89871    0.01623
   2.89988    0.01662
   2.90105    0.01703
   2.90222    0.01745
   2.90339    0.01790
   2.90456    0.01835
   2.90573    0.01883
   2.90690    0.01933
   2.90807    0.01985
   2.90924    0.02039
   2.91040    0.02096
   2.91157    0.02156
   2.91274    0.02218
   2.91391    0.02283
   2.91508    0.02351
   2.91625    0.02422
   2.91742    0.02498
   2.91859    0.02577
   2.91976    0.02660
   2.92093    0.02748
   2.92210    0.02841
   2.92327    0.02939
   2.92444    0.03043
   2.92560    0.03154
   2.92677    0.03271
   2.92794    0.03396
   2.92911    0.03529
   2.93028    0.03671
   2.93145    0.03824
   2.93262    0.03988
   2.93379    0.04164
   2.93496    0.04354
   2.93613    0.04560
   2.93730    0.04782
   2.93847    0.05024
   2.93964    0.05287
   2.94080    0.05575
   2.94197    0.05888
   2.94314    0.06232
   2.94431    0.06608
   2.94548    0.07019
   2.94665    0.07467
   2.94782    0.07953
   2.94899    0.08477
   2.95016    0.09035
   2.95133    0.09619
  2.952496   0.102173
  2.953665   0.108119
  2.954835   0.113815
  2.956004   0.119034
  2.957173   0.123584
  2.958342   0.127352
  2.959512   0.130343
  2.960681   0.132682
  2.961850   0.134586
  2.963019   0.136314
  2.964188   0.138118
  2.965358   0.140213
  2.966527   0.142757
  2.967696   0.145859
  2.968865   0.149592
  2.970035   0.154016
  2.971204   0.159195
  2.972373   0.165209
  2.973542   0.172160
  2.974711   0.180172
  2.975881   0.189387
  2.977050   0.199961
  2.978219   0.212063
  2.979388   0.225876
  2.980557   0.241600
  2.981727   0.259453
  2.982896   0.279672
  2.984065   0.302509
  2.985234   0.328221
  2.986403   0.357064
  2.987573   0.389267
  2.988742   0.425012
  2.989911   0.464411
  2.991080   0.507480
  2.992249   0.554128
  2.993419   0.604137
  2.994588   0.657124
  2.995757   0.712460
  2.996926   0.769112
  2.998096   0.825446
  2.999265   0.879069
  3.000434   0.926826
  3.001603   0.965082
  3.002772   0.990333
  3.003942   1.000000
  3.005111   0.993149
  3.006280   0.970801
  3.007449   0.935685
  3.008618   0.891606
  3.009788   0.842561
  3.010957   0.792141
  3.012126   0.743100
  3.013295   0.697226
  3.014464   0.655430
  3.015634   0.617800
  3.016803   0.583885
  3.017972   0.552822
  3.019141   0.523592
  3.020311   0.495248
  3.021480   0.467113
  3.022649   0.438895
  3.023818   0.410685
  3.024987   0.382846
  3.026157   0.355867
  3.027326   0.330219
  3.028495   0.306274
  3.029664   0.284269
  3.030833   0.264312
  3.032003   0.246412
  3.033172   0.230502
  3.034341   0.216472
  3.035510   0.204184
  3.036680   0.193481
  3.037849   0.184197
  3.039018   0.176155
  3.040187   0.169171
  3.041356   0.163059
  3.042526   0.157638
  3.043695   0.152757
  3.044864   0.148304
  3.046033   0.144221
  3.047202   0.140500
  3.048372   0.137162
  3.049541   0.134233
  3.050710   0.131709
  3.051879   0.129537
  3.053048   0.127600
  3.054218   0.125717
  3.055387   0.123663
  3.056556   0.121211
  3.057725   0.118170
  3.058895   0.114438
  3.060064   0.110026
  3.061233   0.105044
   3.06240    0.09968
   3.06357    0.09413
   3.06474    0.08859
   3.06591    0.08321
   3.06708    0.07810
   3.06825    0.07332
   3.06942    0.06889
   3.07059    0.06482
   3.07176    0.06109
   3.07293    0.05769
   3.07409    0.05459
   3.07526    0.05175
   3.07643    0.04917
   3.07760    0.04680
   3.07877    0.04463
   3.07994    0.04263
   3.08111    0.04080
   3.08228    0.03910
   3.08345    0.03754
   3.08462    0.03609
   3.08579    0.03474
   3.08696    0.03349
   3.08812    0.03233
   3.08929    0.03124
   3.09046    0.03023
   3.09163    0.02929
   3.09280    0.02840
   3.09397    0.02758
   3.09514    0.02681
   3.09631    0.02610
   3.09748    0.02544
   3.09865    0.02482
   3.09982    0.02425
   3.10099    0.02372
   3.10216    0.02324
   3.10332    0.02281
   3.10449    0.02242
   3.10566    0.02207
   3.10683    0.02177
   3.10800    0.02152
   3.10917    0.02133
   3.11034    0.02118
   3.11151    0.02110
   3.11268    0.02107
   3.11385    0.02111
   3.11502    0.02122
   3.11619    0.02140
   3.11736    0.02164
   3.11852    0.02195
   3.11969    0.02230
   3.12086    0.02268
   3.12203    0.02306
   3.12320    0.02339
   3.12437    0.02363
   3.12554    0.02372
   3.12671    0.02363
   3.12788    0.02334
   3.12905    0.02284
   3.13022    0.02217
   3.13139    0.02137
   3.13255    0.02048
   3.13372    0.01956
   3.13489    0.01864
   3.13606    0.01774
   3.13723    0.01690
   3.13840    0.01611
   3.13957    0.01538
   3.14074    0.01471
   3.14191    0.01409
   3.14308    0.01353
   3.14425    0.01301
   3.14542    0.01254
   3.14659    0.01211
   3.14775    0.01171
   3.14892    0.01134
   3.15009    0.01099
   3.15126    0.01068
   3.15243    0.01038
   3.15360    0.01010
    3.1548     0.0098
    3.1559     0.0096
    3.1571     0.0094
    3.1583     0.0091
    3.1594     0.0089
    3.1606     0.0087
    3.1618     0.0085
    3.1630     0.0084
    3.1641     0.0082
    3.1653     0.0080
    3.1665     0.0079
    3.1676     0.0077
    3.1688     0.0076
    3.1700     0.0074
    3.1711     0.0073
    3.1723     0.0072
    3.1735     0.0070
    3.1746     0.0069
    3.1758     0.0068
    3.1770     0.0067
    3.1782     0.0066
    3.1793     0.0065
    3.1805     0.0064
    3.1817     0.0063
    3.1828     0.0062
    3.1840     0.0061
    3.1852     0.0060
    3.1863     0.0059
    3.1875     0.0058
    3.1887     0.0057
    3.1898     0.0056
    3.1910     0.0056
    3.1922     0.0055
    3.1934     0.0054
    3.1945     0.0053
    3.1957     0.0053
    3.1969     0.0052
    3.1980     0.0051
    3.1992     0.0050
    3.2004     0.0050
    3.2015     0.0049
    3.2027     0.0048
    3.2039     0.0048
    3.2050     0.0047
    3.2062     0.0047
    3.2074     0.0046
    3.2086     0.0045
    3.2097     0.0045
    3.2109     0.0044
    3.2121     0.0044
    3.2132     0.0043
    3.2144     0.0043
    3.2156     0.0042
    3.2167     0.0042
    3.2179     0.0041
    3.2191     0.0041
    3.2202     0.0040
    3.2214     0.0040
    3.2226     0.0039
    3.2238     0.0039
    3.2249     0.0038
    3.2261     0.0038
    3.2273     0.0038
    3.2284     0.0037
    3.2296     0.0037
    3.2308     0.0036
    3.2319     0.0036
    3.2331     0.0036
    3.2343     0.0035
    3.2354     0.0035
    3.2366     0.0034
    3.2378     0.0034
    3.2390     0.0034
    3.2401     0.0033
    3.2413     0.0033
    3.2425     0.0033
  3.244     0.3235E-2
  3.245     0.3202E-2
  3.246     0.3169E-2
  3.247     0.3137E-2
  3.248     0.3105E-2
  3.249     0.3074E-2
  3.251     0.3044E-2
  3.252     0.3013E-2
  3.253     0.2984E-2
  3.254     0.2954E-2
  3.255     0.2926E-2
  3.256     0.2897E-2
  3.258     0.2869E-2
  3.259     0.2842E-2
  3.260     0.2815E-2
  3.261     0.2788E-2
  3.262     0.2762E-2
  3.264     0.2736E-2
  3.265     0.2710E-2
  3.266     0.2685E-2
  3.267     0.2660E-2
  3.268     0.2635E-2
  3.269     0.2611E-2
  3.271     0.2587E-2
  3.272     0.2564E-2
  3.273     0.2541E-2
  3.274     0.2518E-2
  3.275     0.2495E-2
  3.276     0.2473E-2
  3.278     0.2451E-2
  3.279     0.2429E-2
  3.280     0.2408E-2
  3.281     0.2387E-2
  3.282     0.2366E-2
  3.283     0.2346E-2
  3.285     0.2325E-2
  3.286     0.2305E-2
  3.287     0.2286E-2
  3.288     0.2266E-2
  3.289     0.2247E-2
  3.290     0.2228E-2
  3.292     0.2209E-2
  3.293     0.2191E-2
  3.294     0.2173E-2
  3.295     0.2155E-2
  3.296     0.2137E-2
  3.297     0.2119E-2
  3.299     0.2102E-2
  3.300     0.2085E-2
  3.301     0.2068E-2
  3.302     0.2051E-2
  3.303     0.2035E-2
  3.304     0.2018E-2
  3.306     0.2002E-2
  3.307     0.1986E-2
  3.308     0.1971E-2
  3.309     0.1955E-2
  3.310     0.1940E-2
  3.311     0.1924E-2
  3.313     0.1910E-2
  3.314     0.1895E-2
  3.315     0.1880E-2
  3.316     0.1866E-2
  3.317     0.1851E-2
  3.318     0.1837E-2
  3.320     0.1823E-2
  3.321     0.1809E-2
  3.322     0.1796E-2
  3.323     0.1782E-2
  3.324     0.1769E-2
  3.325     0.1756E-2
  3.327     0.1743E-2
  3.328     0.1730E-2
  3.329     0.1717E-2
  3.330     0.1704E-2
  3.331     0.1692E-2
  3.332     0.1680E-2
  3.334     0.1667E-2
  3.335     0.1655E-2
  3.336     0.1643E-2
  3.337     0.1632E-2
  3.338     0.1620E-2
  3.340     0.1608E-2
  3.341     0.1597E-2
  3.342     0.1586E-2
  3.343     0.1574E-2
  3.344     0.1563E-2
  3.345     0.1552E-2
  3.347     0.1542E-2
  3.348     0.1531E-2
  3.349     0.1520E-2
  3.350     0.1510E-2
  3.351     0.1499E-2
  3.352     0.1489E-2
  3.354     0.1479E-2
  3.355     0.1469E-2
  3.356     0.1459E-2
  3.357     0.1449E-2
  3.358     0.1439E-2
  3.359     0.1430E-2
  3.361     0.1420E-2
  3.362     0.1410E-2
  3.363     0.1401E-2
  3.364     0.1392E-2
  3.365     0.1383E-2
  3.366     0.1374E-2
  3.368     0.1365E-2
  3.369     0.1356E-2
  3.370     0.1347E-2
  3.371     0.1338E-2
  3.372     0.1329E-2
  3.373     0.1321E-2
  3.375     0.1312E-2
  3.376     0.1304E-2
  3.377     0.1296E-2
  3.378     0.1287E-2
  3.379     0.1279E-2
  3.380     0.1271E-2
  3.382     0.1263E-2
  3.383     0.1255E-2
  3.384     0.1247E-2
  3.385     0.1239E-2
  3.386     0.1232E-2
  3.387     0.1224E-2
  3.389     0.1217E-2
  3.390     0.1209E-2
  3.391     0.1202E-2
  3.392     0.1194E-2
  3.393     0.1187E-2
  3.394     0.1180E-2
  3.396     0.1173E-2
  3.397     0.1165E-2
  3.398     0.1158E-2
  3.399     0.1151E-2
  3.400     0.1145E-2
  3.401     0.1138E-2
  3.403     0.1131E-2
  3.404     0.1124E-2
  3.405     0.1118E-2
  3.406     0.1111E-2
  3.407     0.1104E-2
  3.408     0.1098E-2
  3.410     0.1091E-2
  3.411     0.1085E-2
  3.412     0.1079E-2
  3.413     0.1072E-2
  3.414     0.1066E-2
  3.416     0.1060E-2
  3.417     0.1054E-2
  3.418     0.1048E-2
  3.419     0.1042E-2
  3.420     0.1036E-2
  3.421     0.1030E-2
  3.423     0.1024E-2
  3.424     0.1019E-2
  3.425     0.1013E-2
  3.426     0.1007E-2
  3.427     0.1001E-2
  3.428     0.9958E-3
  3.430     0.9903E-3
  3.431     0.9848E-3
  3.432     0.9793E-3
  3.433     0.9739E-3
  3.434     0.9685E-3
  3.435     0.9632E-3
  3.437     0.9579E-3
  3.438     0.9527E-3
  3.439     0.9475E-3
  3.440     0.9424E-3
  3.441     0.9373E-3
  3.442     0.9322E-3
  3.444     0.9272E-3
  3.445     0.9222E-3
  3.446     0.9172E-3
  3.447     0.9123E-3
  3.448     0.9075E-3
  3.449     0.9026E-3
  3.451     0.8978E-3
  3.452     0.8931E-3
  3.453     0.8884E-3
  3.454     0.8837E-3
  3.455     0.8791E-3
  3.456     0.8745E-3
  3.458     0.8699E-3
  3.459     0.8654E-3
  3.460     0.8609E-3
  3.461     0.8564E-3
  3.462     0.8520E-3
  3.463     0.8476E-3
  3.465     0.8432E-3
  3.466     0.8389E-3
  3.467     0.8346E-3
  3.468     0.8304E-3
  3.469     0.8261E-3
  3.470     0.8219E-3
  3.472     0.8178E-3
  3.473     0.8137E-3
  3.474     0.8096E-3
  3.475     0.8055E-3
  3.476     0.8015E-3
  3.477     0.7974E-3
  3.479     0.7935E-3
  3.480     0.7895E-3
  3.481     0.7856E-3
  3.482     0.7817E-3
  3.483     0.7779E-3
  3.484     0.7740E-3
  3.486     0.7702E-3
  3.487     0.7665E-3
  3.488     0.7627E-3
  3.489     0.7590E-3
  3.490     0.7553E-3
  3.492     0.7516E-3
  3.493     0.7480E-3
  3.494     0.7444E-3
  3.495     0.7408E-3
  3.496     0.7372E-3
  3.497     0.7337E-3
  3.499     0.7302E-3
  3.500     0.7267E-3
  3.501     0.7233E-3
  3.502     0.7198E-3
  3.503     0.7164E-3
  3.504     0.7130E-3
  3.506     0.7097E-3
  3.507     0.7063E-3
  3.508     0.7030E-3
  3.509     0.6997E-3
  3.510     0.6965E-3
  3.511     0.6932E-3
  3.513     0.6900E-3
  3.514     0.6868E-3
  3.515     0.6836E-3
  3.516     0.6805E-3
  3.517     0.6773E-3
  3.518     0.6742E-3
  3.520     0.6711E-3
  3.521     0.6681E-3
  3.522     0.6650E-3
  3.523     0.6620E-3
  3.524     0.6590E-3
  3.525     0.6560E-3
  3.527     0.6530E-3
  3.528     0.6501E-3
  3.529     0.6472E-3
  3.530     0.6443E-3
  3.531     0.6414E-3
  3.532     0.6385E-3
  3.534     0.6357E-3
  3.535     0.6328E-3
  3.536     0.6300E-3
  3.537     0.6272E-3
  3.538     0.6245E-3
  3.539     0.6217E-3
  3.541     0.6190E-3
  3.542     0.6163E-3
  3.543     0.6136E-3
  3.544     0.6109E-3
  3.545     0.6082E-3
  3.546     0.6056E-3
  3.548     0.6029E-3
  3.549     0.6003E-3
  3.550     0.5977E-3
  3.551     0.5952E-3
  3.552     0.5926E-3
  3.553     0.5900E-3
  3.555     0.5875E-3
  3.556     0.5850E-3
  3.557     0.5825E-3
  3.558     0.5800E-3
  3.559     0.5776E-3
  3.560     0.5751E-3
  3.562     0.5727E-3
  3.563     0.5703E-3
  3.564     0.5679E-3
  3.565     0.5655E-3
  3.566     0.5631E-3
  3.568     0.5607E-3
  3.569     0.5584E-3
  3.570     0.5561E-3
  3.571     0.5538E-3
  3.572     0.5515E-3
  3.573     0.5492E-3
  3.575     0.5469E-3
  3.576     0.5446E-3
  3.577     0.5424E-3
  3.578     0.5402E-3
  3.579     0.5380E-3
  3.580     0.5358E-3
  3.582     0.5336E-3
  3.583     0.5314E-3
  3.584     0.5292E-3
  3.585     0.5271E-3
  3.586     0.5250E-3
  3.587     0.5228E-3
  3.589     0.5207E-3
  3.590     0.5186E-3
  3.591     0.5165E-3
  3.592     0.5145E-3
  3.593     0.5124E-3
  3.594     0.5104E-3
  3.596     0.5083E-3
  3.597     0.5063E-3
  3.598     0.5043E-3
  3.599     0.5023E-3
  3.600     0.5003E-3
  3.601     0.4983E-3
  3.603     0.4964E-3
  3.604     0.4944E-3
  3.605     0.4925E-3
  3.606     0.4906E-3
  3.607     0.4886E-3
  3.608     0.4867E-3
  3.610     0.4848E-3
  3.611     0.4830E-3
  3.612     0.4811E-3
  3.613     0.4792E-3
  3.614     0.4774E-3
  3.615     0.4755E-3
  3.617     0.4737E-3
  3.618     0.4719E-3
  3.619     0.4701E-3
  3.620     0.4683E-3
  3.621     0.4665E-3
  3.622     0.4647E-3
  3.624     0.4629E-3
  3.625     0.4612E-3
  3.626     0.4594E-3
# 
# 06/20/2019 at 00:18 YPP @ br018.pvt.bridges.psc.edu [start]
# 06/20/2019 at 00:19                                 [end]
#  
# Timing   [Min/Max/Average]: 02s/02s/02s
#
# .-Input file : amp.in
# | excitons                     # [R] Excitons
# | amplitude                    # [R] Amplitude
# | BoseTemp=  0.02585     eV    # Bosonic Temperature
# | States= "1 - 20"             # Index of the BS state(s)
# | #DipWeight                   #  Weight the contribution to the exciton WFs with the dipoles
# | Degen_Step=0.1000E-4   eV    # Maximum energy separation of two degenerate states
