#                                                           
#   __   __     _        __  __       ____      U  ___  u   
#   \ \ / / U  /"\  U u |" \/ "| u U | __") u    \/"_ \/    
#    \ V /   \/ _ \/   \| |\/| |/   \|  _ \/     | | | |    
#   U_|"|_u  / ___ \    | |  | |     | |_) | .-,_| |_| |    
#     |_|   /_/   \_\   |_|  |_|     |____/   \_)-\___/     
# .-,//|(_   \\    >>  <<,-,,-.     _|| \\_        \\       
#  \_) (__) (__)  (__)  (./  \.)   (__) (__)      (__)      
#                                                           
#                                                           
#              GPL Version 4.1.4 Revision 76                
#                        MPI Build                          
#                http://www.yambo-code.org                  
#
# BSK|Identifier              :9599
#    |Dimension               :5098
#    |Bands                   :524 - 624
#    |Exchange           [res]: yes
#    |Correlation        [res]: no
#    |Kernel`s coupling       : no
#    |Exchange           [cpl]: no
#    |Correlation        [cpl]: no
#    |W interaction is bare   : no
#    |ALDA kernel in R-space  : no
#    |RL vectors    [exchange]:55207
#    |E/h energy range    [ev]:-1.000000 - -1.000000
#    |Coupling range     [o/o]: 100.0000 -  100.0000
#
# Electron-Hole pairs that contributes to Excitonic State 18 more than 5%
#
#  E    [eV]  Amplitude
#  
  2.447     0.4599E-3
  2.448     0.4617E-3
  2.449     0.4636E-3
  2.450     0.4654E-3
  2.451     0.4673E-3
  2.452     0.4692E-3
  2.453     0.4711E-3
  2.454     0.4730E-3
  2.455     0.4749E-3
  2.456     0.4769E-3
  2.458     0.4788E-3
  2.459     0.4807E-3
  2.460     0.4827E-3
  2.461     0.4847E-3
  2.462     0.4867E-3
  2.463     0.4887E-3
  2.464     0.4907E-3
  2.465     0.4927E-3
  2.466     0.4948E-3
  2.467     0.4968E-3
  2.468     0.4989E-3
  2.470     0.5010E-3
  2.471     0.5031E-3
  2.472     0.5052E-3
  2.473     0.5073E-3
  2.474     0.5094E-3
  2.475     0.5116E-3
  2.476     0.5137E-3
  2.477     0.5159E-3
  2.478     0.5181E-3
  2.479     0.5203E-3
  2.480     0.5225E-3
  2.482     0.5247E-3
  2.483     0.5270E-3
  2.484     0.5292E-3
  2.485     0.5315E-3
  2.486     0.5338E-3
  2.487     0.5361E-3
  2.488     0.5384E-3
  2.489     0.5407E-3
  2.490     0.5431E-3
  2.491     0.5454E-3
  2.492     0.5478E-3
  2.494     0.5502E-3
  2.495     0.5526E-3
  2.496     0.5550E-3
  2.497     0.5575E-3
  2.498     0.5599E-3
  2.499     0.5624E-3
  2.500     0.5649E-3
  2.501     0.5674E-3
  2.502     0.5699E-3
  2.503     0.5724E-3
  2.504     0.5750E-3
  2.506     0.5776E-3
  2.507     0.5802E-3
  2.508     0.5828E-3
  2.509     0.5854E-3
  2.510     0.5880E-3
  2.511     0.5907E-3
  2.512     0.5934E-3
  2.513     0.5961E-3
  2.514     0.5988E-3
  2.515     0.6015E-3
  2.516     0.6043E-3
  2.518     0.6071E-3
  2.519     0.6098E-3
  2.520     0.6127E-3
  2.521     0.6155E-3
  2.522     0.6183E-3
  2.523     0.6212E-3
  2.524     0.6241E-3
  2.525     0.6270E-3
  2.526     0.6299E-3
  2.527     0.6329E-3
  2.528     0.6359E-3
  2.530     0.6389E-3
  2.531     0.6419E-3
  2.532     0.6449E-3
  2.533     0.6480E-3
  2.534     0.6510E-3
  2.535     0.6541E-3
  2.536     0.6573E-3
  2.537     0.6604E-3
  2.538     0.6636E-3
  2.539     0.6668E-3
  2.540     0.6700E-3
  2.542     0.6732E-3
  2.543     0.6765E-3
  2.544     0.6798E-3
  2.545     0.6831E-3
  2.546     0.6864E-3
  2.547     0.6898E-3
  2.548     0.6931E-3
  2.549     0.6965E-3
  2.550     0.7000E-3
  2.551     0.7034E-3
  2.552     0.7069E-3
  2.554     0.7104E-3
  2.555     0.7140E-3
  2.556     0.7175E-3
  2.557     0.7211E-3
  2.558     0.7247E-3
  2.559     0.7284E-3
  2.560     0.7320E-3
  2.561     0.7357E-3
  2.562     0.7395E-3
  2.563     0.7432E-3
  2.564     0.7470E-3
  2.566     0.7508E-3
  2.567     0.7547E-3
  2.568     0.7585E-3
  2.569     0.7624E-3
  2.570     0.7664E-3
  2.571     0.7703E-3
  2.572     0.7743E-3
  2.573     0.7783E-3
  2.574     0.7824E-3
  2.575     0.7865E-3
  2.576     0.7906E-3
  2.578     0.7948E-3
  2.579     0.7989E-3
  2.580     0.8032E-3
  2.581     0.8074E-3
  2.582     0.8117E-3
  2.583     0.8160E-3
  2.584     0.8204E-3
  2.585     0.8248E-3
  2.586     0.8292E-3
  2.587     0.8336E-3
  2.588     0.8381E-3
  2.590     0.8427E-3
  2.591     0.8472E-3
  2.592     0.8518E-3
  2.593     0.8565E-3
  2.594     0.8612E-3
  2.595     0.8659E-3
  2.596     0.8706E-3
  2.597     0.8754E-3
  2.598     0.8803E-3
  2.599     0.8852E-3
  2.600     0.8901E-3
  2.602     0.8950E-3
  2.603     0.9000E-3
  2.604     0.9051E-3
  2.605     0.9102E-3
  2.606     0.9153E-3
  2.607     0.9205E-3
  2.608     0.9257E-3
  2.609     0.9310E-3
  2.610     0.9363E-3
  2.611     0.9416E-3
  2.612     0.9470E-3
  2.614     0.9525E-3
  2.615     0.9580E-3
  2.616     0.9635E-3
  2.617     0.9691E-3
  2.618     0.9747E-3
  2.619     0.9804E-3
  2.620     0.9862E-3
  2.621     0.9919E-3
  2.622     0.9978E-3
  2.623     0.1004E-2
  2.624     0.1010E-2
  2.626     0.1016E-2
  2.627     0.1022E-2
  2.628     0.1028E-2
  2.629     0.1034E-2
  2.630     0.1040E-2
  2.631     0.1046E-2
  2.632     0.1053E-2
  2.633     0.1059E-2
  2.634     0.1066E-2
  2.635     0.1072E-2
  2.636     0.1079E-2
  2.638     0.1085E-2
  2.639     0.1092E-2
  2.640     0.1099E-2
  2.641     0.1105E-2
  2.642     0.1112E-2
  2.643     0.1119E-2
  2.644     0.1126E-2
  2.645     0.1133E-2
  2.646     0.1140E-2
  2.647     0.1148E-2
  2.648     0.1155E-2
  2.650     0.1162E-2
  2.651     0.1170E-2
  2.652     0.1177E-2
  2.653     0.1185E-2
  2.654     0.1192E-2
  2.655     0.1200E-2
  2.656     0.1208E-2
  2.657     0.1216E-2
  2.658     0.1224E-2
  2.659     0.1232E-2
  2.660     0.1240E-2
  2.662     0.1248E-2
  2.663     0.1256E-2
  2.664     0.1264E-2
  2.665     0.1273E-2
  2.666     0.1281E-2
  2.667     0.1290E-2
  2.668     0.1299E-2
  2.669     0.1307E-2
  2.670     0.1316E-2
  2.671     0.1325E-2
  2.672     0.1334E-2
  2.674     0.1343E-2
  2.675     0.1352E-2
  2.676     0.1362E-2
  2.677     0.1371E-2
  2.678     0.1381E-2
  2.679     0.1390E-2
  2.680     0.1400E-2
  2.681     0.1410E-2
  2.682     0.1420E-2
  2.683     0.1430E-2
  2.685     0.1440E-2
  2.686     0.1450E-2
  2.687     0.1460E-2
  2.688     0.1471E-2
  2.689     0.1481E-2
  2.690     0.1492E-2
  2.691     0.1503E-2
  2.692     0.1514E-2
  2.693     0.1525E-2
  2.694     0.1536E-2
  2.695     0.1547E-2
  2.697     0.1559E-2
  2.698     0.1570E-2
  2.699     0.1582E-2
  2.700     0.1594E-2
  2.701     0.1605E-2
  2.702     0.1617E-2
  2.703     0.1630E-2
  2.704     0.1642E-2
  2.705     0.1654E-2
  2.706     0.1667E-2
  2.707     0.1680E-2
  2.709     0.1693E-2
  2.710     0.1706E-2
  2.711     0.1719E-2
  2.712     0.1732E-2
  2.713     0.1746E-2
  2.714     0.1759E-2
  2.715     0.1773E-2
  2.716     0.1787E-2
  2.717     0.1801E-2
  2.718     0.1816E-2
  2.719     0.1830E-2
  2.721     0.1845E-2
  2.722     0.1860E-2
  2.723     0.1875E-2
  2.724     0.1890E-2
  2.725     0.1905E-2
  2.726     0.1921E-2
  2.727     0.1937E-2
  2.728     0.1953E-2
  2.729     0.1969E-2
  2.730     0.1985E-2
  2.731     0.2002E-2
  2.733     0.2019E-2
  2.734     0.2036E-2
  2.735     0.2053E-2
  2.736     0.2070E-2
  2.737     0.2088E-2
  2.738     0.2106E-2
  2.739     0.2124E-2
  2.740     0.2142E-2
  2.741     0.2161E-2
  2.742     0.2180E-2
  2.743     0.2199E-2
  2.745     0.2218E-2
  2.746     0.2238E-2
  2.747     0.2258E-2
  2.748     0.2278E-2
  2.749     0.2298E-2
  2.750     0.2319E-2
  2.751     0.2340E-2
  2.752     0.2361E-2
  2.753     0.2383E-2
  2.754     0.2404E-2
  2.755     0.2427E-2
  2.757     0.2449E-2
  2.758     0.2472E-2
  2.759     0.2495E-2
  2.760     0.2518E-2
  2.761     0.2542E-2
  2.762     0.2566E-2
  2.763     0.2590E-2
  2.764     0.2615E-2
  2.765     0.2640E-2
  2.766     0.2666E-2
  2.767     0.2692E-2
  2.769     0.2718E-2
  2.770     0.2744E-2
    2.7707     0.0028
    2.7718     0.0028
    2.7729     0.0028
    2.7740     0.0029
    2.7751     0.0029
    2.7762     0.0029
    2.7773     0.0029
    2.7784     0.0030
    2.7794     0.0030
    2.7805     0.0030
    2.7816     0.0031
    2.7827     0.0031
    2.7838     0.0031
    2.7849     0.0032
    2.7860     0.0032
    2.7871     0.0032
    2.7882     0.0033
    2.7893     0.0033
    2.7904     0.0033
    2.7915     0.0034
    2.7925     0.0034
    2.7936     0.0034
    2.7947     0.0035
    2.7958     0.0035
    2.7969     0.0036
    2.7980     0.0036
    2.7991     0.0036
    2.8002     0.0037
    2.8013     0.0037
    2.8024     0.0038
    2.8035     0.0038
    2.8045     0.0039
    2.8056     0.0039
    2.8067     0.0039
    2.8078     0.0040
    2.8089     0.0040
    2.8100     0.0041
    2.8111     0.0041
    2.8122     0.0042
    2.8133     0.0042
    2.8144     0.0043
    2.8155     0.0043
    2.8166     0.0044
    2.8176     0.0045
    2.8187     0.0045
    2.8198     0.0046
    2.8209     0.0046
    2.8220     0.0047
    2.8231     0.0047
    2.8242     0.0048
    2.8253     0.0049
    2.8264     0.0049
    2.8275     0.0050
    2.8286     0.0051
    2.8296     0.0051
    2.8307     0.0052
    2.8318     0.0053
    2.8329     0.0053
    2.8340     0.0054
    2.8351     0.0055
    2.8362     0.0056
    2.8373     0.0057
    2.8384     0.0057
    2.8395     0.0058
    2.8406     0.0059
    2.8417     0.0060
    2.8427     0.0061
    2.8438     0.0062
    2.8449     0.0063
    2.8460     0.0063
    2.8471     0.0064
    2.8482     0.0065
    2.8493     0.0066
    2.8504     0.0067
    2.8515     0.0068
    2.8526     0.0070
    2.8537     0.0071
    2.8548     0.0072
    2.8558     0.0073
    2.8569     0.0074
    2.8580     0.0075
    2.8591     0.0077
    2.8602     0.0078
    2.8613     0.0079
    2.8624     0.0081
    2.8635     0.0082
    2.8646     0.0083
    2.8657     0.0085
    2.8668     0.0086
    2.8678     0.0088
    2.8689     0.0089
    2.8700     0.0091
    2.8711     0.0093
    2.8722     0.0094
    2.8733     0.0096
    2.8744     0.0098
    2.8755     0.0100
   2.87658    0.01016
   2.87767    0.01036
   2.87876    0.01056
   2.87985    0.01077
   2.88094    0.01098
   2.88203    0.01120
   2.88313    0.01143
   2.88422    0.01166
   2.88531    0.01191
   2.88640    0.01216
   2.88749    0.01241
   2.88858    0.01268
   2.88967    0.01296
   2.89076    0.01324
   2.89186    0.01353
   2.89295    0.01384
   2.89404    0.01415
   2.89513    0.01448
   2.89622    0.01482
   2.89731    0.01517
   2.89840    0.01553
   2.89950    0.01591
   2.90059    0.01630
   2.90168    0.01671
   2.90277    0.01713
   2.90386    0.01757
   2.90495    0.01803
   2.90604    0.01851
   2.90713    0.01900
   2.90823    0.01952
   2.90932    0.02006
   2.91041    0.02062
   2.91150    0.02121
   2.91259    0.02183
   2.91368    0.02248
   2.91477    0.02316
   2.91587    0.02387
   2.91696    0.02461
   2.91805    0.02540
   2.91914    0.02623
   2.92023    0.02710
   2.92132    0.02802
   2.92241    0.02900
   2.92351    0.03003
   2.92460    0.03112
   2.92569    0.03229
   2.92678    0.03353
   2.92787    0.03485
   2.92896    0.03626
   2.93005    0.03777
   2.93114    0.03939
   2.93224    0.04113
   2.93333    0.04300
   2.93442    0.04501
   2.93551    0.04718
   2.93660    0.04950
   2.93769    0.05199
   2.93878    0.05464
   2.93988    0.05744
   2.94097    0.06037
   2.94206    0.06339
   2.94315    0.06645
   2.94424    0.06949
   2.94533    0.07246
   2.94642    0.07531
   2.94751    0.07805
   2.94861    0.08069
   2.94970    0.08332
   2.95079    0.08601
   2.95188    0.08886
   2.95297    0.09196
   2.95406    0.09541
   2.95515    0.09926
  2.956245   0.103596
  2.957337   0.108465
  2.958428   0.113927
  2.959519   0.120043
  2.960611   0.126879
  2.961702   0.134509
  2.962793   0.143017
  2.963885   0.152499
  2.964976   0.163064
  2.966068   0.174836
  2.967159   0.187951
  2.968250   0.202560
  2.969342   0.218818
  2.970433   0.236886
  2.971524   0.256915
  2.972616   0.279035
  2.973707   0.303342
  2.974798   0.329878
  2.975890   0.358636
  2.976981   0.389573
  2.978072   0.422651
  2.979164   0.457901
  2.980255   0.495482
  2.981346   0.535727
  2.982438   0.579060
  2.983529   0.625846
  2.984620   0.676259
  2.985712   0.729944
  2.986803   0.785814
  2.987894   0.841844
  2.988986   0.894997
  2.990077   0.941382
  2.991168   0.976726
  2.992260   0.997136
  2.993351   1.000000
  2.994442   0.984667
  2.995534   0.952632
  2.996625   0.907124
  2.997717   0.852296
  2.998808   0.792368
  2.999899   0.730984
  3.000991   0.670895
  3.002082   0.613920
  3.003173   0.561070
  3.004265   0.512747
  3.005356   0.468946
  3.006447   0.429432
  3.007539   0.393871
  3.008630   0.361917
  3.009722   0.333253
  3.010813   0.307600
  3.011904   0.284717
  3.012995   0.264376
  3.014087   0.246376
  3.015178   0.230535
  3.016269   0.216668
  3.017361   0.204618
  3.018452   0.194237
  3.019543   0.185392
  3.020635   0.177956
  3.021726   0.171809
  3.022817   0.166822
  3.023909   0.162854
  3.025000   0.159738
  3.026092   0.157280
  3.027183   0.155260
  3.028274   0.153447
  3.029366   0.151625
  3.030457   0.149617
  3.031548   0.147310
  3.032640   0.144641
  3.033731   0.141582
  3.034822   0.138107
  3.035914   0.134177
  3.037005   0.129748
  3.038096   0.124792
  3.039188   0.119336
  3.040279   0.113466
  3.041370   0.107325
  3.042462   0.101084
   3.04355    0.09491
   3.04464    0.08894
   3.04574    0.08328
   3.04683    0.07798
   3.04792    0.07308
   3.04901    0.06857
   3.05010    0.06445
   3.05119    0.06068
   3.05228    0.05725
   3.05338    0.05411
   3.05447    0.05125
   3.05556    0.04862
   3.05665    0.04622
   3.05774    0.04401
   3.05883    0.04197
   3.05992    0.04009
   3.06101    0.03834
   3.06211    0.03673
   3.06320    0.03522
   3.06429    0.03382
   3.06538    0.03251
   3.06647    0.03128
   3.06756    0.03013
   3.06865    0.02905
   3.06975    0.02803
   3.07084    0.02707
   3.07193    0.02617
   3.07302    0.02531
   3.07411    0.02450
   3.07520    0.02373
   3.07629    0.02300
   3.07738    0.02230
   3.07848    0.02164
   3.07957    0.02101
   3.08066    0.02041
   3.08175    0.01984
   3.08284    0.01929
   3.08393    0.01876
   3.08502    0.01826
   3.08612    0.01778
   3.08721    0.01732
   3.08830    0.01688
   3.08939    0.01646
   3.09048    0.01605
   3.09157    0.01566
   3.09266    0.01528
   3.09376    0.01492
   3.09485    0.01457
   3.09594    0.01423
   3.09703    0.01391
   3.09812    0.01359
   3.09921    0.01329
   3.10030    0.01300
   3.10139    0.01272
   3.10249    0.01244
   3.10358    0.01218
   3.10467    0.01193
   3.10576    0.01168
   3.10685    0.01144
   3.10794    0.01121
   3.10903    0.01098
   3.11013    0.01077
   3.11122    0.01055
   3.11231    0.01035
   3.11340    0.01015
    3.1145     0.0100
    3.1156     0.0098
    3.1167     0.0096
    3.1178     0.0094
    3.1189     0.0092
    3.1199     0.0091
    3.1210     0.0089
    3.1221     0.0088
    3.1232     0.0086
    3.1243     0.0085
    3.1254     0.0083
    3.1265     0.0082
    3.1276     0.0080
    3.1287     0.0079
    3.1298     0.0078
    3.1309     0.0076
    3.1320     0.0075
    3.1330     0.0074
    3.1341     0.0073
    3.1352     0.0072
    3.1363     0.0070
    3.1374     0.0069
    3.1385     0.0068
    3.1396     0.0067
    3.1407     0.0066
    3.1418     0.0065
    3.1429     0.0064
    3.1440     0.0063
    3.1450     0.0062
    3.1461     0.0061
    3.1472     0.0060
    3.1483     0.0060
    3.1494     0.0059
    3.1505     0.0058
    3.1516     0.0057
    3.1527     0.0056
    3.1538     0.0055
    3.1549     0.0055
    3.1560     0.0054
    3.1571     0.0053
    3.1581     0.0052
    3.1592     0.0052
    3.1603     0.0051
    3.1614     0.0050
    3.1625     0.0050
    3.1636     0.0049
    3.1647     0.0048
    3.1658     0.0048
    3.1669     0.0047
    3.1680     0.0047
    3.1691     0.0046
    3.1701     0.0045
    3.1712     0.0045
    3.1723     0.0044
    3.1734     0.0044
    3.1745     0.0043
    3.1756     0.0043
    3.1767     0.0042
    3.1778     0.0042
    3.1789     0.0041
    3.1800     0.0041
    3.1811     0.0040
    3.1822     0.0040
    3.1832     0.0039
    3.1843     0.0039
    3.1854     0.0038
    3.1865     0.0038
    3.1876     0.0037
    3.1887     0.0037
    3.1898     0.0037
    3.1909     0.0036
    3.1920     0.0036
    3.1931     0.0035
    3.1942     0.0035
    3.1953     0.0035
    3.1963     0.0034
    3.1974     0.0034
    3.1985     0.0034
    3.1996     0.0033
    3.2007     0.0033
    3.2018     0.0032
    3.2029     0.0032
  3.204     0.3177E-2
  3.205     0.3144E-2
  3.206     0.3111E-2
  3.207     0.3079E-2
  3.208     0.3047E-2
  3.209     0.3016E-2
  3.211     0.2985E-2
  3.212     0.2955E-2
  3.213     0.2925E-2
  3.214     0.2896E-2
  3.215     0.2867E-2
  3.216     0.2839E-2
  3.217     0.2810E-2
  3.218     0.2783E-2
  3.219     0.2756E-2
  3.220     0.2729E-2
  3.221     0.2702E-2
  3.223     0.2676E-2
  3.224     0.2651E-2
  3.225     0.2625E-2
  3.226     0.2600E-2
  3.227     0.2576E-2
  3.228     0.2552E-2
  3.229     0.2528E-2
  3.230     0.2504E-2
  3.231     0.2481E-2
  3.232     0.2458E-2
  3.233     0.2435E-2
  3.235     0.2413E-2
  3.236     0.2391E-2
  3.237     0.2369E-2
  3.238     0.2348E-2
  3.239     0.2327E-2
  3.240     0.2306E-2
  3.241     0.2286E-2
  3.242     0.2265E-2
  3.243     0.2245E-2
  3.244     0.2226E-2
  3.245     0.2206E-2
  3.247     0.2187E-2
  3.248     0.2168E-2
  3.249     0.2149E-2
  3.250     0.2131E-2
  3.251     0.2113E-2
  3.252     0.2095E-2
  3.253     0.2077E-2
  3.254     0.2059E-2
  3.255     0.2042E-2
  3.256     0.2025E-2
  3.257     0.2008E-2
  3.259     0.1991E-2
  3.260     0.1975E-2
  3.261     0.1959E-2
  3.262     0.1943E-2
  3.263     0.1927E-2
  3.264     0.1911E-2
  3.265     0.1895E-2
  3.266     0.1880E-2
  3.267     0.1865E-2
  3.268     0.1850E-2
  3.269     0.1835E-2
  3.271     0.1821E-2
  3.272     0.1806E-2
  3.273     0.1792E-2
  3.274     0.1778E-2
  3.275     0.1764E-2
  3.276     0.1751E-2
  3.277     0.1737E-2
  3.278     0.1724E-2
  3.279     0.1710E-2
  3.280     0.1697E-2
  3.281     0.1684E-2
  3.283     0.1671E-2
  3.284     0.1659E-2
  3.285     0.1646E-2
  3.286     0.1634E-2
  3.287     0.1622E-2
  3.288     0.1609E-2
  3.289     0.1598E-2
  3.290     0.1586E-2
  3.291     0.1574E-2
  3.292     0.1562E-2
  3.293     0.1551E-2
  3.295     0.1540E-2
  3.296     0.1528E-2
  3.297     0.1517E-2
  3.298     0.1506E-2
  3.299     0.1496E-2
  3.300     0.1485E-2
  3.301     0.1474E-2
  3.302     0.1464E-2
  3.303     0.1453E-2
  3.304     0.1443E-2
  3.305     0.1433E-2
  3.307     0.1423E-2
  3.308     0.1413E-2
  3.309     0.1403E-2
  3.310     0.1393E-2
  3.311     0.1384E-2
  3.312     0.1374E-2
  3.313     0.1365E-2
  3.314     0.1355E-2
  3.315     0.1346E-2
  3.316     0.1337E-2
  3.317     0.1328E-2
  3.319     0.1319E-2
  3.320     0.1310E-2
  3.321     0.1301E-2
  3.322     0.1293E-2
  3.323     0.1284E-2
  3.324     0.1276E-2
  3.325     0.1267E-2
  3.326     0.1259E-2
  3.327     0.1250E-2
  3.328     0.1242E-2
  3.329     0.1234E-2
  3.331     0.1226E-2
  3.332     0.1218E-2
  3.333     0.1210E-2
  3.334     0.1202E-2
  3.335     0.1195E-2
  3.336     0.1187E-2
  3.337     0.1179E-2
  3.338     0.1172E-2
  3.339     0.1165E-2
  3.340     0.1157E-2
  3.341     0.1150E-2
  3.343     0.1143E-2
  3.344     0.1136E-2
  3.345     0.1128E-2
  3.346     0.1121E-2
  3.347     0.1114E-2
  3.348     0.1108E-2
  3.349     0.1101E-2
  3.350     0.1094E-2
  3.351     0.1087E-2
  3.352     0.1081E-2
  3.353     0.1074E-2
  3.355     0.1067E-2
  3.356     0.1061E-2
  3.357     0.1055E-2
  3.358     0.1048E-2
  3.359     0.1042E-2
  3.360     0.1036E-2
  3.361     0.1030E-2
  3.362     0.1023E-2
  3.363     0.1017E-2
  3.364     0.1011E-2
  3.366     0.1005E-2
  3.367     0.9995E-3
  3.368     0.9936E-3
  3.369     0.9878E-3
  3.370     0.9821E-3
  3.371     0.9764E-3
  3.372     0.9707E-3
  3.373     0.9651E-3
  3.374     0.9596E-3
  3.375     0.9541E-3
  3.376     0.9486E-3
  3.378     0.9432E-3
  3.379     0.9378E-3
  3.380     0.9325E-3
  3.381     0.9272E-3
  3.382     0.9220E-3
  3.383     0.9168E-3
  3.384     0.9116E-3
  3.385     0.9065E-3
  3.386     0.9015E-3
  3.387     0.8965E-3
  3.388     0.8915E-3
  3.390     0.8866E-3
  3.391     0.8817E-3
  3.392     0.8768E-3
  3.393     0.8720E-3
  3.394     0.8672E-3
  3.395     0.8625E-3
  3.396     0.8578E-3
  3.397     0.8531E-3
  3.398     0.8485E-3
  3.399     0.8439E-3
  3.400     0.8394E-3
  3.402     0.8349E-3
  3.403     0.8304E-3
  3.404     0.8260E-3
  3.405     0.8216E-3
  3.406     0.8172E-3
  3.407     0.8129E-3
  3.408     0.8086E-3
  3.409     0.8043E-3
  3.410     0.8001E-3
  3.411     0.7959E-3
  3.412     0.7917E-3
  3.414     0.7876E-3
  3.415     0.7835E-3
  3.416     0.7795E-3
  3.417     0.7754E-3
  3.418     0.7714E-3
  3.419     0.7675E-3
  3.420     0.7635E-3
  3.421     0.7596E-3
  3.422     0.7557E-3
  3.423     0.7519E-3
  3.424     0.7480E-3
  3.426     0.7443E-3
  3.427     0.7405E-3
  3.428     0.7368E-3
  3.429     0.7331E-3
  3.430     0.7294E-3
  3.431     0.7257E-3
  3.432     0.7221E-3
  3.433     0.7185E-3
  3.434     0.7149E-3
  3.435     0.7114E-3
  3.436     0.7079E-3
  3.438     0.7044E-3
  3.439     0.7009E-3
  3.440     0.6975E-3
  3.441     0.6941E-3
  3.442     0.6907E-3
  3.443     0.6873E-3
  3.444     0.6840E-3
  3.445     0.6806E-3
  3.446     0.6774E-3
  3.447     0.6741E-3
  3.448     0.6708E-3
  3.450     0.6676E-3
  3.451     0.6644E-3
  3.452     0.6613E-3
  3.453     0.6581E-3
  3.454     0.6550E-3
  3.455     0.6519E-3
  3.456     0.6488E-3
  3.457     0.6457E-3
  3.458     0.6427E-3
  3.459     0.6397E-3
  3.460     0.6367E-3
  3.462     0.6337E-3
  3.463     0.6307E-3
  3.464     0.6278E-3
  3.465     0.6249E-3
  3.466     0.6220E-3
  3.467     0.6191E-3
  3.468     0.6162E-3
  3.469     0.6134E-3
  3.470     0.6106E-3
  3.471     0.6078E-3
  3.472     0.6050E-3
  3.474     0.6023E-3
  3.475     0.5995E-3
  3.476     0.5968E-3
  3.477     0.5941E-3
  3.478     0.5914E-3
  3.479     0.5887E-3
  3.480     0.5861E-3
  3.481     0.5835E-3
  3.482     0.5808E-3
  3.483     0.5783E-3
  3.484     0.5757E-3
  3.486     0.5731E-3
  3.487     0.5706E-3
  3.488     0.5680E-3
  3.489     0.5655E-3
  3.490     0.5630E-3
  3.491     0.5606E-3
  3.492     0.5581E-3
  3.493     0.5557E-3
  3.494     0.5532E-3
  3.495     0.5508E-3
  3.496     0.5484E-3
  3.498     0.5460E-3
  3.499     0.5437E-3
  3.500     0.5413E-3
  3.501     0.5390E-3
  3.502     0.5367E-3
  3.503     0.5344E-3
  3.504     0.5321E-3
  3.505     0.5298E-3
  3.506     0.5275E-3
  3.507     0.5253E-3
  3.508     0.5231E-3
  3.510     0.5208E-3
  3.511     0.5186E-3
  3.512     0.5164E-3
  3.513     0.5143E-3
  3.514     0.5121E-3
  3.515     0.5100E-3
  3.516     0.5078E-3
  3.517     0.5057E-3
  3.518     0.5036E-3
  3.519     0.5015E-3
  3.520     0.4994E-3
  3.522     0.4973E-3
  3.523     0.4953E-3
  3.524     0.4932E-3
  3.525     0.4912E-3
  3.526     0.4892E-3
  3.527     0.4872E-3
  3.528     0.4852E-3
  3.529     0.4832E-3
  3.530     0.4812E-3
  3.531     0.4793E-3
  3.532     0.4773E-3
  3.534     0.4754E-3
  3.535     0.4735E-3
  3.536     0.4716E-3
  3.537     0.4697E-3
# 
# 06/20/2019 at 00:18 YPP @ br018.pvt.bridges.psc.edu [start]
# 06/20/2019 at 00:19                                 [end]
#  
# Timing   [Min/Max/Average]: 02s/02s/02s
#
# .-Input file : amp.in
# | excitons                     # [R] Excitons
# | amplitude                    # [R] Amplitude
# | BoseTemp=  0.02585     eV    # Bosonic Temperature
# | States= "1 - 20"             # Index of the BS state(s)
# | #DipWeight                   #  Weight the contribution to the exciton WFs with the dipoles
# | Degen_Step=0.1000E-4   eV    # Maximum energy separation of two degenerate states
