#                                                           
#   __   __     _        __  __       ____      U  ___  u   
#   \ \ / / U  /"\  U u |" \/ "| u U | __") u    \/"_ \/    
#    \ V /   \/ _ \/   \| |\/| |/   \|  _ \/     | | | |    
#   U_|"|_u  / ___ \    | |  | |     | |_) | .-,_| |_| |    
#     |_|   /_/   \_\   |_|  |_|     |____/   \_)-\___/     
# .-,//|(_   \\    >>  <<,-,,-.     _|| \\_        \\       
#  \_) (__) (__)  (__)  (./  \.)   (__) (__)      (__)      
#                                                           
#                                                           
#              GPL Version 4.1.4 Revision 76                
#                        MPI Build                          
#                http://www.yambo-code.org                  
#
# BSK|Identifier              :9599
#    |Dimension               :5098
#    |Bands                   :524 - 624
#    |Exchange           [res]: yes
#    |Correlation        [res]: no
#    |Kernel`s coupling       : no
#    |Exchange           [cpl]: no
#    |Correlation        [cpl]: no
#    |W interaction is bare   : no
#    |ALDA kernel in R-space  : no
#    |RL vectors    [exchange]:55207
#    |E/h energy range    [ev]:-1.000000 - -1.000000
#    |Coupling range     [o/o]: 100.0000 -  100.0000
#
# Electron-Hole pairs that contributes to Excitonic State 13 more than 5%
#
#  E    [eV]  Amplitude
#  
  2.468     0.3998E-3
  2.469     0.4014E-3
  2.470     0.4031E-3
  2.471     0.4047E-3
  2.472     0.4063E-3
  2.473     0.4080E-3
  2.474     0.4096E-3
  2.475     0.4113E-3
  2.476     0.4129E-3
  2.477     0.4146E-3
  2.478     0.4163E-3
  2.479     0.4180E-3
  2.480     0.4197E-3
  2.481     0.4215E-3
  2.482     0.4232E-3
  2.483     0.4249E-3
  2.484     0.4267E-3
  2.485     0.4285E-3
  2.486     0.4302E-3
  2.487     0.4320E-3
  2.488     0.4338E-3
  2.489     0.4357E-3
  2.490     0.4375E-3
  2.491     0.4393E-3
  2.492     0.4412E-3
  2.493     0.4430E-3
  2.494     0.4449E-3
  2.495     0.4468E-3
  2.496     0.4487E-3
  2.497     0.4506E-3
  2.498     0.4525E-3
  2.499     0.4544E-3
  2.500     0.4564E-3
  2.501     0.4583E-3
  2.502     0.4603E-3
  2.503     0.4623E-3
  2.504     0.4643E-3
  2.505     0.4663E-3
  2.506     0.4683E-3
  2.507     0.4703E-3
  2.508     0.4724E-3
  2.509     0.4744E-3
  2.510     0.4765E-3
  2.511     0.4786E-3
  2.512     0.4807E-3
  2.513     0.4828E-3
  2.514     0.4849E-3
  2.515     0.4871E-3
  2.516     0.4892E-3
  2.517     0.4914E-3
  2.518     0.4936E-3
  2.519     0.4958E-3
  2.520     0.4980E-3
  2.521     0.5002E-3
  2.522     0.5025E-3
  2.523     0.5047E-3
  2.524     0.5070E-3
  2.525     0.5093E-3
  2.526     0.5116E-3
  2.527     0.5139E-3
  2.528     0.5163E-3
  2.529     0.5186E-3
  2.530     0.5210E-3
  2.531     0.5234E-3
  2.532     0.5258E-3
  2.533     0.5282E-3
  2.534     0.5306E-3
  2.535     0.5331E-3
  2.536     0.5355E-3
  2.537     0.5380E-3
  2.538     0.5405E-3
  2.539     0.5431E-3
  2.540     0.5456E-3
  2.541     0.5482E-3
  2.542     0.5507E-3
  2.543     0.5533E-3
  2.544     0.5559E-3
  2.545     0.5586E-3
  2.546     0.5612E-3
  2.547     0.5639E-3
  2.548     0.5666E-3
  2.549     0.5693E-3
  2.550     0.5720E-3
  2.551     0.5747E-3
  2.552     0.5775E-3
  2.553     0.5803E-3
  2.554     0.5831E-3
  2.555     0.5859E-3
  2.556     0.5888E-3
  2.557     0.5916E-3
  2.558     0.5945E-3
  2.559     0.5974E-3
  2.560     0.6004E-3
  2.561     0.6033E-3
  2.562     0.6063E-3
  2.563     0.6093E-3
  2.564     0.6123E-3
  2.565     0.6154E-3
  2.566     0.6184E-3
  2.567     0.6215E-3
  2.568     0.6246E-3
  2.569     0.6277E-3
  2.570     0.6309E-3
  2.571     0.6341E-3
  2.572     0.6373E-3
  2.573     0.6405E-3
  2.574     0.6438E-3
  2.575     0.6470E-3
  2.576     0.6503E-3
  2.577     0.6537E-3
  2.578     0.6570E-3
  2.579     0.6604E-3
  2.580     0.6638E-3
  2.581     0.6672E-3
  2.582     0.6707E-3
  2.583     0.6742E-3
  2.584     0.6777E-3
  2.585     0.6812E-3
  2.586     0.6848E-3
  2.587     0.6884E-3
  2.588     0.6920E-3
  2.589     0.6957E-3
  2.590     0.6994E-3
  2.591     0.7031E-3
  2.592     0.7068E-3
  2.593     0.7106E-3
  2.594     0.7144E-3
  2.595     0.7182E-3
  2.596     0.7221E-3
  2.597     0.7260E-3
  2.598     0.7299E-3
  2.599     0.7339E-3
  2.600     0.7379E-3
  2.601     0.7419E-3
  2.602     0.7460E-3
  2.603     0.7500E-3
  2.604     0.7542E-3
  2.605     0.7583E-3
  2.606     0.7625E-3
  2.607     0.7667E-3
  2.608     0.7710E-3
  2.609     0.7753E-3
  2.610     0.7796E-3
  2.611     0.7840E-3
  2.612     0.7884E-3
  2.613     0.7929E-3
  2.614     0.7973E-3
  2.615     0.8019E-3
  2.616     0.8064E-3
  2.617     0.8110E-3
  2.618     0.8157E-3
  2.619     0.8203E-3
  2.620     0.8251E-3
  2.621     0.8298E-3
  2.622     0.8346E-3
  2.623     0.8395E-3
  2.624     0.8443E-3
  2.625     0.8493E-3
  2.626     0.8542E-3
  2.627     0.8592E-3
  2.628     0.8643E-3
  2.629     0.8694E-3
  2.630     0.8746E-3
  2.631     0.8797E-3
  2.632     0.8850E-3
  2.633     0.8903E-3
  2.634     0.8956E-3
  2.635     0.9010E-3
  2.636     0.9064E-3
  2.637     0.9119E-3
  2.638     0.9174E-3
  2.639     0.9230E-3
  2.640     0.9286E-3
  2.641     0.9343E-3
  2.642     0.9401E-3
  2.643     0.9459E-3
  2.644     0.9517E-3
  2.645     0.9576E-3
  2.646     0.9635E-3
  2.647     0.9695E-3
  2.648     0.9756E-3
  2.649     0.9817E-3
  2.650     0.9879E-3
  2.651     0.9941E-3
  2.652     0.1000E-2
  2.653     0.1007E-2
  2.654     0.1013E-2
  2.655     0.1020E-2
  2.656     0.1026E-2
  2.657     0.1033E-2
  2.658     0.1040E-2
  2.659     0.1046E-2
  2.660     0.1053E-2
  2.661     0.1060E-2
  2.662     0.1067E-2
  2.663     0.1074E-2
  2.664     0.1081E-2
  2.665     0.1088E-2
  2.666     0.1095E-2
  2.667     0.1103E-2
  2.668     0.1110E-2
  2.669     0.1117E-2
  2.670     0.1125E-2
  2.671     0.1132E-2
  2.672     0.1140E-2
  2.673     0.1148E-2
  2.674     0.1156E-2
  2.675     0.1163E-2
  2.676     0.1171E-2
  2.677     0.1180E-2
  2.678     0.1188E-2
  2.679     0.1196E-2
  2.680     0.1204E-2
  2.681     0.1213E-2
  2.682     0.1221E-2
  2.683     0.1230E-2
  2.684     0.1238E-2
  2.685     0.1247E-2
  2.686     0.1256E-2
  2.687     0.1265E-2
  2.688     0.1274E-2
  2.689     0.1283E-2
  2.690     0.1292E-2
  2.691     0.1302E-2
  2.692     0.1311E-2
  2.693     0.1321E-2
  2.694     0.1330E-2
  2.695     0.1340E-2
  2.696     0.1350E-2
  2.697     0.1360E-2
  2.698     0.1370E-2
  2.699     0.1380E-2
  2.700     0.1390E-2
  2.701     0.1401E-2
  2.702     0.1411E-2
  2.703     0.1422E-2
  2.704     0.1433E-2
  2.705     0.1444E-2
  2.706     0.1455E-2
  2.707     0.1466E-2
  2.708     0.1477E-2
  2.709     0.1489E-2
  2.710     0.1500E-2
  2.711     0.1512E-2
  2.712     0.1524E-2
  2.713     0.1536E-2
  2.714     0.1548E-2
  2.715     0.1560E-2
  2.716     0.1572E-2
  2.717     0.1585E-2
  2.718     0.1597E-2
  2.719     0.1610E-2
  2.720     0.1623E-2
  2.721     0.1636E-2
  2.722     0.1650E-2
  2.723     0.1663E-2
  2.724     0.1677E-2
  2.725     0.1691E-2
  2.726     0.1705E-2
  2.727     0.1719E-2
  2.728     0.1733E-2
  2.729     0.1748E-2
  2.730     0.1762E-2
  2.731     0.1777E-2
  2.732     0.1792E-2
  2.733     0.1808E-2
  2.734     0.1823E-2
  2.735     0.1839E-2
  2.736     0.1854E-2
  2.737     0.1871E-2
  2.738     0.1887E-2
  2.739     0.1903E-2
  2.740     0.1920E-2
  2.741     0.1937E-2
  2.742     0.1954E-2
  2.743     0.1971E-2
  2.744     0.1989E-2
  2.745     0.2007E-2
  2.746     0.2025E-2
  2.747     0.2043E-2
  2.748     0.2062E-2
  2.749     0.2081E-2
  2.750     0.2100E-2
  2.751     0.2119E-2
  2.752     0.2139E-2
  2.753     0.2159E-2
  2.754     0.2179E-2
  2.755     0.2199E-2
  2.756     0.2220E-2
  2.757     0.2241E-2
  2.758     0.2262E-2
  2.759     0.2284E-2
  2.760     0.2306E-2
  2.761     0.2328E-2
  2.762     0.2351E-2
  2.763     0.2374E-2
  2.764     0.2397E-2
  2.765     0.2421E-2
  2.766     0.2445E-2
  2.767     0.2469E-2
  2.768     0.2494E-2
  2.769     0.2519E-2
  2.770     0.2544E-2
  2.771     0.2570E-2
  2.772     0.2596E-2
  2.773     0.2623E-2
  2.774     0.2650E-2
  2.775     0.2677E-2
  2.776     0.2705E-2
  2.777     0.2734E-2
  2.778     0.2762E-2
    2.7790     0.0028
    2.7800     0.0028
    2.7810     0.0029
    2.7820     0.0029
    2.7830     0.0029
    2.7840     0.0029
    2.7850     0.0030
    2.7860     0.0030
    2.7870     0.0030
    2.7880     0.0031
    2.7890     0.0031
    2.7900     0.0031
    2.7910     0.0032
    2.7920     0.0032
    2.7930     0.0033
    2.7940     0.0033
    2.7950     0.0033
    2.7960     0.0034
    2.7970     0.0034
    2.7980     0.0034
    2.7990     0.0035
    2.8000     0.0035
    2.8010     0.0036
    2.8020     0.0036
    2.8030     0.0037
    2.8040     0.0037
    2.8050     0.0037
    2.8060     0.0038
    2.8070     0.0038
    2.8080     0.0039
    2.8090     0.0039
    2.8100     0.0040
    2.8110     0.0040
    2.8120     0.0041
    2.8130     0.0041
    2.8140     0.0042
    2.8150     0.0043
    2.8160     0.0043
    2.8170     0.0044
    2.8180     0.0044
    2.8190     0.0045
    2.8200     0.0045
    2.8210     0.0046
    2.8220     0.0047
    2.8230     0.0047
    2.8240     0.0048
    2.8250     0.0049
    2.8260     0.0049
    2.8270     0.0050
    2.8280     0.0051
    2.8290     0.0051
    2.8300     0.0052
    2.8310     0.0053
    2.8320     0.0054
    2.8330     0.0055
    2.8340     0.0055
    2.8350     0.0056
    2.8360     0.0057
    2.8370     0.0058
    2.8380     0.0059
    2.8390     0.0060
    2.8400     0.0061
    2.8410     0.0062
    2.8420     0.0063
    2.8430     0.0064
    2.8440     0.0065
    2.8450     0.0066
    2.8460     0.0067
    2.8470     0.0068
    2.8480     0.0069
    2.8490     0.0070
    2.8500     0.0071
    2.8510     0.0073
    2.8520     0.0074
    2.8530     0.0075
    2.8540     0.0076
    2.8550     0.0078
    2.8560     0.0079
    2.8570     0.0081
    2.8580     0.0082
    2.8590     0.0083
    2.8600     0.0085
    2.8610     0.0087
    2.8620     0.0088
    2.8630     0.0090
    2.8640     0.0092
    2.8650     0.0093
    2.8660     0.0095
    2.8670     0.0097
    2.8680     0.0099
   2.86902    0.01010
   2.87002    0.01031
   2.87102    0.01052
   2.87202    0.01073
   2.87302    0.01096
   2.87402    0.01119
   2.87502    0.01143
   2.87602    0.01168
   2.87702    0.01193
   2.87802    0.01220
   2.87902    0.01247
   2.88002    0.01275
   2.88102    0.01304
   2.88202    0.01334
   2.88302    0.01365
   2.88402    0.01397
   2.88502    0.01431
   2.88602    0.01465
   2.88702    0.01501
   2.88802    0.01538
   2.88902    0.01577
   2.89002    0.01617
   2.89102    0.01659
   2.89202    0.01702
   2.89302    0.01747
   2.89402    0.01793
   2.89502    0.01842
   2.89602    0.01893
   2.89702    0.01945
   2.89802    0.02000
   2.89902    0.02057
   2.90002    0.02117
   2.90102    0.02179
   2.90202    0.02244
   2.90302    0.02312
   2.90402    0.02383
   2.90502    0.02458
   2.90602    0.02536
   2.90702    0.02617
   2.90802    0.02703
   2.90902    0.02793
   2.91002    0.02887
   2.91102    0.02986
   2.91202    0.03090
   2.91302    0.03200
   2.91402    0.03316
   2.91502    0.03438
   2.91602    0.03566
   2.91702    0.03702
   2.91802    0.03846
   2.91902    0.03998
   2.92002    0.04160
   2.92102    0.04331
   2.92202    0.04513
   2.92302    0.04706
   2.92402    0.04912
   2.92502    0.05131
   2.92602    0.05365
   2.92702    0.05615
   2.92802    0.05882
   2.92902    0.06169
   2.93002    0.06477
   2.93102    0.06807
   2.93202    0.07163
   2.93302    0.07547
   2.93402    0.07962
   2.93502    0.08410
   2.93602    0.08897
   2.93702    0.09425
  2.938023   0.100000
  2.939023   0.106270
  2.940023   0.113123
  2.941023   0.120627
  2.942023   0.128865
  2.943023   0.137932
  2.944023   0.147929
  2.945023   0.158984
  2.946023   0.171233
  2.947023   0.184842
  2.948023   0.200001
  2.949023   0.216919
  2.950023   0.235851
  2.951023   0.257069
  2.952023   0.280897
  2.953023   0.307693
  2.954023   0.337836
  2.955023   0.371750
  2.956023   0.409836
  2.957023   0.452494
  2.958023   0.500001
  2.959023   0.552483
  2.960023   0.609760
  2.961023   0.671139
  2.962023   0.735300
  2.963023   0.800001
  2.964023   0.862065
  2.965023   0.917434
  2.966023   0.961537
  2.967023   0.990101
  2.968023   1.000000
  2.969023   0.990101
  2.970023   0.961537
  2.971023   0.917434
  2.972023   0.862065
  2.973023   0.800001
  2.974023   0.735287
  2.975023   0.671139
  2.976023   0.609760
  2.977023   0.552483
  2.978023   0.500001
  2.979023   0.452484
  2.980023   0.409836
  2.981023   0.371750
  2.982023   0.337836
  2.983023   0.307693
  2.984023   0.280897
  2.985023   0.257069
  2.986023   0.235851
  2.987023   0.216919
  2.988023   0.200001
  2.989023   0.184842
  2.990023   0.171233
  2.991023   0.158981
  2.992023   0.147929
  2.993023   0.137932
  2.994023   0.128865
  2.995023   0.120627
  2.996023   0.113122
  2.997023   0.106270
  2.998023   0.100000
   2.99902    0.09425
   3.00002    0.08897
   3.00102    0.08410
   3.00202    0.07962
   3.00302    0.07547
   3.00402    0.07163
   3.00502    0.06807
   3.00602    0.06477
   3.00702    0.06169
   3.00802    0.05882
   3.00902    0.05615
   3.01002    0.05365
   3.01102    0.05131
   3.01202    0.04912
   3.01302    0.04706
   3.01402    0.04513
   3.01502    0.04331
   3.01602    0.04160
   3.01702    0.03998
   3.01802    0.03846
   3.01902    0.03702
   3.02002    0.03566
   3.02102    0.03438
   3.02202    0.03316
   3.02302    0.03200
   3.02402    0.03090
   3.02502    0.02986
   3.02602    0.02887
   3.02702    0.02793
   3.02802    0.02703
   3.02902    0.02617
   3.03002    0.02535
   3.03102    0.02458
   3.03202    0.02383
   3.03302    0.02312
   3.03402    0.02244
   3.03502    0.02179
   3.03602    0.02117
   3.03702    0.02057
   3.03802    0.02000
   3.03902    0.01945
   3.04002    0.01893
   3.04102    0.01842
   3.04202    0.01793
   3.04302    0.01747
   3.04402    0.01702
   3.04502    0.01659
   3.04602    0.01617
   3.04702    0.01577
   3.04802    0.01538
   3.04902    0.01501
   3.05002    0.01465
   3.05102    0.01431
   3.05202    0.01397
   3.05302    0.01365
   3.05402    0.01334
   3.05502    0.01304
   3.05602    0.01275
   3.05702    0.01247
   3.05802    0.01220
   3.05902    0.01193
   3.06002    0.01168
   3.06102    0.01143
   3.06202    0.01119
   3.06302    0.01096
   3.06402    0.01073
   3.06502    0.01052
   3.06602    0.01031
   3.06702    0.01010
    3.0680     0.0099
    3.0690     0.0097
    3.0700     0.0095
    3.0710     0.0093
    3.0720     0.0092
    3.0730     0.0090
    3.0740     0.0088
    3.0750     0.0087
    3.0760     0.0085
    3.0770     0.0083
    3.0780     0.0082
    3.0790     0.0081
    3.0800     0.0079
    3.0810     0.0078
    3.0820     0.0076
    3.0830     0.0075
    3.0840     0.0074
    3.0850     0.0073
    3.0860     0.0071
    3.0870     0.0070
    3.0880     0.0069
    3.0890     0.0068
    3.0900     0.0067
    3.0910     0.0066
    3.0920     0.0065
    3.0930     0.0064
    3.0940     0.0063
    3.0950     0.0062
    3.0960     0.0061
    3.0970     0.0060
    3.0980     0.0059
    3.0990     0.0058
    3.1000     0.0057
    3.1010     0.0056
    3.1020     0.0055
    3.1030     0.0055
    3.1040     0.0054
    3.1050     0.0053
    3.1060     0.0052
    3.1070     0.0051
    3.1080     0.0051
    3.1090     0.0050
    3.1100     0.0049
    3.1110     0.0049
    3.1120     0.0048
    3.1130     0.0047
    3.1140     0.0047
    3.1150     0.0046
    3.1160     0.0045
    3.1170     0.0045
    3.1180     0.0044
    3.1190     0.0044
    3.1200     0.0043
    3.1210     0.0043
    3.1220     0.0042
    3.1230     0.0041
    3.1240     0.0041
    3.1250     0.0040
    3.1260     0.0040
    3.1270     0.0039
    3.1280     0.0039
    3.1290     0.0038
    3.1300     0.0038
    3.1310     0.0037
    3.1320     0.0037
    3.1330     0.0037
    3.1340     0.0036
    3.1350     0.0036
    3.1360     0.0035
    3.1370     0.0035
    3.1380     0.0034
    3.1390     0.0034
    3.1400     0.0034
    3.1410     0.0033
    3.1420     0.0033
    3.1430     0.0033
    3.1440     0.0032
    3.1450     0.0032
    3.1460     0.0031
  3.147     0.3111E-2
  3.148     0.3077E-2
  3.149     0.3043E-2
  3.150     0.3010E-2
  3.151     0.2977E-2
  3.152     0.2945E-2
  3.153     0.2913E-2
  3.154     0.2882E-2
  3.155     0.2852E-2
  3.156     0.2821E-2
  3.157     0.2792E-2
  3.158     0.2762E-2
  3.159     0.2734E-2
  3.160     0.2705E-2
  3.161     0.2677E-2
  3.162     0.2650E-2
  3.163     0.2623E-2
  3.164     0.2596E-2
  3.165     0.2570E-2
  3.166     0.2544E-2
  3.167     0.2519E-2
  3.168     0.2494E-2
  3.169     0.2469E-2
  3.170     0.2445E-2
  3.171     0.2421E-2
  3.172     0.2397E-2
  3.173     0.2374E-2
  3.174     0.2351E-2
  3.175     0.2328E-2
  3.176     0.2306E-2
  3.177     0.2284E-2
  3.178     0.2262E-2
  3.179     0.2241E-2
  3.180     0.2220E-2
  3.181     0.2199E-2
  3.182     0.2179E-2
  3.183     0.2159E-2
  3.184     0.2139E-2
  3.185     0.2119E-2
  3.186     0.2100E-2
  3.187     0.2081E-2
  3.188     0.2062E-2
  3.189     0.2043E-2
  3.190     0.2025E-2
  3.191     0.2007E-2
  3.192     0.1989E-2
  3.193     0.1971E-2
  3.194     0.1954E-2
  3.195     0.1937E-2
  3.196     0.1920E-2
  3.197     0.1903E-2
  3.198     0.1887E-2
  3.199     0.1871E-2
  3.200     0.1854E-2
  3.201     0.1839E-2
  3.202     0.1823E-2
  3.203     0.1808E-2
  3.204     0.1792E-2
  3.205     0.1777E-2
  3.206     0.1762E-2
  3.207     0.1748E-2
  3.208     0.1733E-2
  3.209     0.1719E-2
  3.210     0.1705E-2
  3.211     0.1691E-2
  3.212     0.1677E-2
  3.213     0.1663E-2
  3.214     0.1650E-2
  3.215     0.1636E-2
  3.216     0.1623E-2
  3.217     0.1610E-2
  3.218     0.1597E-2
  3.219     0.1585E-2
  3.220     0.1572E-2
  3.221     0.1560E-2
  3.222     0.1548E-2
  3.223     0.1536E-2
  3.224     0.1524E-2
  3.225     0.1512E-2
  3.226     0.1500E-2
  3.227     0.1489E-2
  3.228     0.1477E-2
  3.229     0.1466E-2
  3.230     0.1455E-2
  3.231     0.1444E-2
  3.232     0.1433E-2
  3.233     0.1422E-2
  3.234     0.1411E-2
  3.235     0.1401E-2
  3.236     0.1390E-2
  3.237     0.1380E-2
  3.238     0.1370E-2
  3.239     0.1360E-2
  3.240     0.1350E-2
  3.241     0.1340E-2
  3.242     0.1330E-2
  3.243     0.1321E-2
  3.244     0.1311E-2
  3.245     0.1302E-2
  3.246     0.1292E-2
  3.247     0.1283E-2
  3.248     0.1274E-2
  3.249     0.1265E-2
  3.250     0.1256E-2
  3.251     0.1247E-2
  3.252     0.1238E-2
  3.253     0.1230E-2
  3.254     0.1221E-2
  3.255     0.1213E-2
  3.256     0.1204E-2
  3.257     0.1196E-2
  3.258     0.1188E-2
  3.259     0.1180E-2
  3.260     0.1171E-2
  3.261     0.1163E-2
  3.262     0.1156E-2
  3.263     0.1148E-2
  3.264     0.1140E-2
  3.265     0.1132E-2
  3.266     0.1125E-2
  3.267     0.1117E-2
  3.268     0.1110E-2
  3.269     0.1103E-2
  3.270     0.1095E-2
  3.271     0.1088E-2
  3.272     0.1081E-2
  3.273     0.1074E-2
  3.274     0.1067E-2
  3.275     0.1060E-2
  3.276     0.1053E-2
  3.277     0.1046E-2
  3.278     0.1040E-2
  3.279     0.1033E-2
  3.280     0.1026E-2
  3.281     0.1020E-2
  3.282     0.1013E-2
  3.283     0.1007E-2
  3.284     0.1000E-2
  3.285     0.9941E-3
  3.286     0.9879E-3
  3.287     0.9817E-3
  3.288     0.9756E-3
  3.289     0.9695E-3
  3.290     0.9635E-3
  3.291     0.9576E-3
  3.292     0.9517E-3
  3.293     0.9459E-3
  3.294     0.9401E-3
  3.295     0.9343E-3
  3.296     0.9286E-3
  3.297     0.9230E-3
  3.298     0.9174E-3
  3.299     0.9119E-3
  3.300     0.9064E-3
  3.301     0.9010E-3
  3.302     0.8956E-3
  3.303     0.8903E-3
  3.304     0.8850E-3
  3.305     0.8797E-3
  3.306     0.8746E-3
  3.307     0.8694E-3
  3.308     0.8643E-3
  3.309     0.8592E-3
  3.310     0.8542E-3
  3.311     0.8493E-3
  3.312     0.8443E-3
  3.313     0.8395E-3
  3.314     0.8346E-3
  3.315     0.8298E-3
  3.316     0.8251E-3
  3.317     0.8203E-3
  3.318     0.8157E-3
  3.319     0.8110E-3
  3.320     0.8064E-3
  3.321     0.8019E-3
  3.322     0.7973E-3
  3.323     0.7929E-3
  3.324     0.7884E-3
  3.325     0.7840E-3
  3.326     0.7796E-3
  3.327     0.7753E-3
  3.328     0.7710E-3
  3.329     0.7667E-3
  3.330     0.7625E-3
  3.331     0.7583E-3
  3.332     0.7542E-3
  3.333     0.7500E-3
  3.334     0.7460E-3
  3.335     0.7419E-3
  3.336     0.7379E-3
  3.337     0.7339E-3
  3.338     0.7299E-3
  3.339     0.7260E-3
  3.340     0.7221E-3
  3.341     0.7182E-3
  3.342     0.7144E-3
  3.343     0.7106E-3
  3.344     0.7068E-3
  3.345     0.7031E-3
  3.346     0.6994E-3
  3.347     0.6957E-3
  3.348     0.6920E-3
  3.349     0.6884E-3
  3.350     0.6848E-3
  3.351     0.6812E-3
  3.352     0.6777E-3
  3.353     0.6742E-3
  3.354     0.6707E-3
  3.355     0.6672E-3
  3.356     0.6638E-3
  3.357     0.6604E-3
  3.358     0.6570E-3
  3.359     0.6537E-3
  3.360     0.6503E-3
  3.361     0.6470E-3
  3.362     0.6438E-3
  3.363     0.6405E-3
  3.364     0.6373E-3
  3.365     0.6341E-3
  3.366     0.6309E-3
  3.367     0.6277E-3
  3.368     0.6246E-3
  3.369     0.6215E-3
  3.370     0.6184E-3
  3.371     0.6154E-3
  3.372     0.6123E-3
  3.373     0.6093E-3
  3.374     0.6063E-3
  3.375     0.6033E-3
  3.376     0.6004E-3
  3.377     0.5974E-3
  3.378     0.5945E-3
  3.379     0.5916E-3
  3.380     0.5888E-3
  3.381     0.5859E-3
  3.382     0.5831E-3
  3.383     0.5803E-3
  3.384     0.5775E-3
  3.385     0.5747E-3
  3.386     0.5720E-3
  3.387     0.5693E-3
  3.388     0.5666E-3
  3.389     0.5639E-3
  3.390     0.5612E-3
  3.391     0.5586E-3
  3.392     0.5559E-3
  3.393     0.5533E-3
  3.394     0.5507E-3
  3.395     0.5482E-3
  3.396     0.5456E-3
  3.397     0.5431E-3
  3.398     0.5405E-3
  3.399     0.5380E-3
  3.400     0.5355E-3
  3.401     0.5331E-3
  3.402     0.5306E-3
  3.403     0.5282E-3
  3.404     0.5258E-3
  3.405     0.5234E-3
  3.406     0.5210E-3
  3.407     0.5186E-3
  3.408     0.5163E-3
  3.409     0.5139E-3
  3.410     0.5116E-3
  3.411     0.5093E-3
  3.412     0.5070E-3
  3.413     0.5047E-3
  3.414     0.5025E-3
  3.415     0.5002E-3
  3.416     0.4980E-3
  3.417     0.4958E-3
  3.418     0.4936E-3
  3.419     0.4914E-3
  3.420     0.4892E-3
  3.421     0.4871E-3
  3.422     0.4849E-3
  3.423     0.4828E-3
  3.424     0.4807E-3
  3.425     0.4786E-3
  3.426     0.4765E-3
  3.427     0.4744E-3
  3.428     0.4724E-3
  3.429     0.4703E-3
  3.430     0.4683E-3
  3.431     0.4663E-3
  3.432     0.4643E-3
  3.433     0.4623E-3
  3.434     0.4603E-3
  3.435     0.4583E-3
  3.436     0.4564E-3
  3.437     0.4544E-3
  3.438     0.4525E-3
  3.439     0.4506E-3
  3.440     0.4487E-3
  3.441     0.4468E-3
  3.442     0.4449E-3
  3.443     0.4430E-3
  3.444     0.4412E-3
  3.445     0.4393E-3
  3.446     0.4375E-3
  3.447     0.4357E-3
  3.448     0.4338E-3
  3.449     0.4320E-3
  3.450     0.4302E-3
  3.451     0.4285E-3
  3.452     0.4267E-3
  3.453     0.4249E-3
  3.454     0.4232E-3
  3.455     0.4215E-3
  3.456     0.4197E-3
  3.457     0.4180E-3
  3.458     0.4163E-3
  3.459     0.4146E-3
  3.460     0.4129E-3
  3.461     0.4113E-3
  3.462     0.4096E-3
  3.463     0.4080E-3
  3.464     0.4063E-3
  3.465     0.4047E-3
  3.466     0.4031E-3
  3.467     0.4014E-3
# 
# 06/20/2019 at 00:18 YPP @ br018.pvt.bridges.psc.edu [start]
# 06/20/2019 at 00:19                                 [end]
#  
# Timing   [Min/Max/Average]: 02s/02s/02s
#
# .-Input file : amp.in
# | excitons                     # [R] Excitons
# | amplitude                    # [R] Amplitude
# | BoseTemp=  0.02585     eV    # Bosonic Temperature
# | States= "1 - 20"             # Index of the BS state(s)
# | #DipWeight                   #  Weight the contribution to the exciton WFs with the dipoles
# | Degen_Step=0.1000E-4   eV    # Maximum energy separation of two degenerate states
