#                                                           
#   __   __     _        __  __       ____      U  ___  u   
#   \ \ / / U  /"\  U u |" \/ "| u U | __") u    \/"_ \/    
#    \ V /   \/ _ \/   \| |\/| |/   \|  _ \/     | | | |    
#   U_|"|_u  / ___ \    | |  | |     | |_) | .-,_| |_| |    
#     |_|   /_/   \_\   |_|  |_|     |____/   \_)-\___/     
# .-,//|(_   \\    >>  <<,-,,-.     _|| \\_        \\       
#  \_) (__) (__)  (__)  (./  \.)   (__) (__)      (__)      
#                                                           
#                                                           
#              GPL Version 4.1.4 Revision 76                
#                        MPI Build                          
#                http://www.yambo-code.org                  
#
# BSK|Identifier              :9599
#    |Dimension               :5098
#    |Bands                   :524 - 624
#    |Exchange           [res]: yes
#    |Correlation        [res]: no
#    |Kernel`s coupling       : no
#    |Exchange           [cpl]: no
#    |Correlation        [cpl]: no
#    |W interaction is bare   : no
#    |ALDA kernel in R-space  : no
#    |RL vectors    [exchange]:55207
#    |E/h energy range    [ev]:-1.000000 - -1.000000
#    |Coupling range     [o/o]: 100.0000 -  100.0000
#
# Electron-Hole pairs that contributes to Excitonic State 12 more than 5%
#
#  E    [eV]  Amplitude
#  
  2.447     0.5740E-3
  2.448     0.5765E-3
  2.449     0.5789E-3
  2.450     0.5814E-3
  2.451     0.5839E-3
  2.452     0.5864E-3
  2.453     0.5890E-3
  2.454     0.5915E-3
  2.455     0.5941E-3
  2.456     0.5967E-3
  2.457     0.5993E-3
  2.459     0.6019E-3
  2.460     0.6045E-3
  2.461     0.6072E-3
  2.462     0.6099E-3
  2.463     0.6126E-3
  2.464     0.6153E-3
  2.465     0.6180E-3
  2.466     0.6207E-3
  2.467     0.6235E-3
  2.468     0.6263E-3
  2.469     0.6291E-3
  2.470     0.6319E-3
  2.472     0.6347E-3
  2.473     0.6376E-3
  2.474     0.6405E-3
  2.475     0.6434E-3
  2.476     0.6463E-3
  2.477     0.6492E-3
  2.478     0.6522E-3
  2.479     0.6552E-3
  2.480     0.6582E-3
  2.481     0.6612E-3
  2.482     0.6642E-3
  2.483     0.6673E-3
  2.485     0.6704E-3
  2.486     0.6735E-3
  2.487     0.6766E-3
  2.488     0.6797E-3
  2.489     0.6829E-3
  2.490     0.6861E-3
  2.491     0.6893E-3
  2.492     0.6925E-3
  2.493     0.6958E-3
  2.494     0.6991E-3
  2.495     0.7024E-3
  2.496     0.7057E-3
  2.498     0.7090E-3
  2.499     0.7124E-3
  2.500     0.7158E-3
  2.501     0.7192E-3
  2.502     0.7227E-3
  2.503     0.7262E-3
  2.504     0.7297E-3
  2.505     0.7332E-3
  2.506     0.7367E-3
  2.507     0.7403E-3
  2.508     0.7439E-3
  2.509     0.7475E-3
  2.511     0.7512E-3
  2.512     0.7549E-3
  2.513     0.7586E-3
  2.514     0.7623E-3
  2.515     0.7661E-3
  2.516     0.7699E-3
  2.517     0.7737E-3
  2.518     0.7775E-3
  2.519     0.7814E-3
  2.520     0.7853E-3
  2.521     0.7892E-3
  2.522     0.7932E-3
  2.524     0.7972E-3
  2.525     0.8012E-3
  2.526     0.8053E-3
  2.527     0.8094E-3
  2.528     0.8135E-3
  2.529     0.8176E-3
  2.530     0.8218E-3
  2.531     0.8260E-3
  2.532     0.8303E-3
  2.533     0.8346E-3
  2.534     0.8389E-3
  2.535     0.8432E-3
  2.537     0.8476E-3
  2.538     0.8520E-3
  2.539     0.8565E-3
  2.540     0.8609E-3
  2.541     0.8655E-3
  2.542     0.8700E-3
  2.543     0.8746E-3
  2.544     0.8792E-3
  2.545     0.8839E-3
  2.546     0.8886E-3
  2.547     0.8933E-3
  2.548     0.8981E-3
  2.550     0.9029E-3
  2.551     0.9078E-3
  2.552     0.9127E-3
  2.553     0.9176E-3
  2.554     0.9226E-3
  2.555     0.9276E-3
  2.556     0.9326E-3
  2.557     0.9377E-3
  2.558     0.9429E-3
  2.559     0.9481E-3
  2.560     0.9533E-3
  2.561     0.9586E-3
  2.563     0.9639E-3
  2.564     0.9692E-3
  2.565     0.9746E-3
  2.566     0.9801E-3
  2.567     0.9856E-3
  2.568     0.9911E-3
  2.569     0.9967E-3
  2.570     0.1002E-2
  2.571     0.1008E-2
  2.572     0.1014E-2
  2.573     0.1019E-2
  2.574     0.1025E-2
  2.576     0.1031E-2
  2.577     0.1037E-2
  2.578     0.1043E-2
  2.579     0.1049E-2
  2.580     0.1055E-2
  2.581     0.1061E-2
  2.582     0.1068E-2
  2.583     0.1074E-2
  2.584     0.1080E-2
  2.585     0.1086E-2
  2.586     0.1093E-2
  2.587     0.1099E-2
  2.589     0.1106E-2
  2.590     0.1112E-2
  2.591     0.1119E-2
  2.592     0.1126E-2
  2.593     0.1133E-2
  2.594     0.1139E-2
  2.595     0.1146E-2
  2.596     0.1153E-2
  2.597     0.1160E-2
  2.598     0.1167E-2
  2.599     0.1174E-2
  2.600     0.1182E-2
  2.602     0.1189E-2
  2.603     0.1196E-2
  2.604     0.1204E-2
  2.605     0.1211E-2
  2.606     0.1219E-2
  2.607     0.1226E-2
  2.608     0.1234E-2
  2.609     0.1242E-2
  2.610     0.1250E-2
  2.611     0.1258E-2
  2.612     0.1266E-2
  2.613     0.1274E-2
  2.615     0.1282E-2
  2.616     0.1290E-2
  2.617     0.1298E-2
  2.618     0.1307E-2
  2.619     0.1315E-2
  2.620     0.1324E-2
  2.621     0.1332E-2
  2.622     0.1341E-2
  2.623     0.1350E-2
  2.624     0.1359E-2
  2.625     0.1368E-2
  2.626     0.1377E-2
  2.628     0.1386E-2
  2.629     0.1395E-2
  2.630     0.1404E-2
  2.631     0.1414E-2
  2.632     0.1423E-2
  2.633     0.1433E-2
  2.634     0.1443E-2
  2.635     0.1453E-2
  2.636     0.1463E-2
  2.637     0.1473E-2
  2.638     0.1483E-2
  2.639     0.1493E-2
  2.641     0.1503E-2
  2.642     0.1514E-2
  2.643     0.1524E-2
  2.644     0.1535E-2
  2.645     0.1546E-2
  2.646     0.1557E-2
  2.647     0.1568E-2
  2.648     0.1579E-2
  2.649     0.1590E-2
  2.650     0.1601E-2
  2.651     0.1613E-2
  2.652     0.1625E-2
  2.654     0.1636E-2
  2.655     0.1648E-2
  2.656     0.1660E-2
  2.657     0.1672E-2
  2.658     0.1685E-2
  2.659     0.1697E-2
  2.660     0.1710E-2
  2.661     0.1722E-2
  2.662     0.1735E-2
  2.663     0.1748E-2
  2.664     0.1761E-2
  2.665     0.1774E-2
  2.667     0.1788E-2
  2.668     0.1801E-2
  2.669     0.1815E-2
  2.670     0.1829E-2
  2.671     0.1843E-2
  2.672     0.1857E-2
  2.673     0.1872E-2
  2.674     0.1886E-2
  2.675     0.1901E-2
  2.676     0.1916E-2
  2.677     0.1931E-2
  2.678     0.1946E-2
  2.680     0.1962E-2
  2.681     0.1977E-2
  2.682     0.1993E-2
  2.683     0.2009E-2
  2.684     0.2025E-2
  2.685     0.2042E-2
  2.686     0.2058E-2
  2.687     0.2075E-2
  2.688     0.2092E-2
  2.689     0.2109E-2
  2.690     0.2126E-2
  2.691     0.2144E-2
  2.693     0.2162E-2
  2.694     0.2180E-2
  2.695     0.2198E-2
  2.696     0.2217E-2
  2.697     0.2236E-2
  2.698     0.2255E-2
  2.699     0.2274E-2
  2.700     0.2293E-2
  2.701     0.2313E-2
  2.702     0.2333E-2
  2.703     0.2353E-2
  2.704     0.2374E-2
  2.706     0.2395E-2
  2.707     0.2416E-2
  2.708     0.2437E-2
  2.709     0.2459E-2
  2.710     0.2481E-2
  2.711     0.2503E-2
  2.712     0.2525E-2
  2.713     0.2548E-2
  2.714     0.2571E-2
  2.715     0.2595E-2
  2.716     0.2619E-2
  2.717     0.2643E-2
  2.719     0.2667E-2
  2.720     0.2692E-2
  2.721     0.2717E-2
    2.7218     0.0027
    2.7229     0.0028
    2.7240     0.0028
    2.7251     0.0028
    2.7261     0.0028
    2.7272     0.0029
    2.7283     0.0029
    2.7294     0.0029
    2.7305     0.0030
    2.7316     0.0030
    2.7326     0.0030
    2.7337     0.0030
    2.7348     0.0031
    2.7359     0.0031
    2.7370     0.0031
    2.7381     0.0032
    2.7391     0.0032
    2.7402     0.0032
    2.7413     0.0033
    2.7424     0.0033
    2.7435     0.0033
    2.7446     0.0034
    2.7456     0.0034
    2.7467     0.0034
    2.7478     0.0035
    2.7489     0.0035
    2.7500     0.0036
    2.7511     0.0036
    2.7521     0.0036
    2.7532     0.0037
    2.7543     0.0037
    2.7554     0.0038
    2.7565     0.0038
    2.7576     0.0038
    2.7586     0.0039
    2.7597     0.0039
    2.7608     0.0040
    2.7619     0.0040
    2.7630     0.0041
    2.7641     0.0041
    2.7651     0.0042
    2.7662     0.0042
    2.7673     0.0043
    2.7684     0.0043
    2.7695     0.0044
    2.7706     0.0044
    2.7716     0.0045
    2.7727     0.0045
    2.7738     0.0046
    2.7749     0.0046
    2.7760     0.0047
    2.7771     0.0047
    2.7781     0.0048
    2.7792     0.0049
    2.7803     0.0049
    2.7814     0.0050
    2.7825     0.0050
    2.7836     0.0051
    2.7846     0.0052
    2.7857     0.0052
    2.7868     0.0053
    2.7879     0.0054
    2.7890     0.0055
    2.7901     0.0055
    2.7911     0.0056
    2.7922     0.0057
    2.7933     0.0058
    2.7944     0.0058
    2.7955     0.0059
    2.7966     0.0060
    2.7976     0.0061
    2.7987     0.0062
    2.7998     0.0063
    2.8009     0.0063
    2.8020     0.0064
    2.8031     0.0065
    2.8041     0.0066
    2.8052     0.0067
    2.8063     0.0068
    2.8074     0.0069
    2.8085     0.0070
    2.8096     0.0071
    2.8107     0.0073
    2.8117     0.0074
    2.8128     0.0075
    2.8139     0.0076
    2.8150     0.0077
    2.8161     0.0078
    2.8172     0.0080
    2.8182     0.0081
    2.8193     0.0082
    2.8204     0.0084
    2.8215     0.0085
    2.8226     0.0086
    2.8237     0.0088
    2.8247     0.0089
    2.8258     0.0091
    2.8269     0.0093
    2.8280     0.0094
    2.8291     0.0096
    2.8302     0.0098
    2.8312     0.0099
   2.83232    0.01012
   2.83340    0.01030
   2.83449    0.01049
   2.83557    0.01069
   2.83666    0.01089
   2.83774    0.01110
   2.83882    0.01131
   2.83991    0.01153
   2.84099    0.01176
   2.84207    0.01200
   2.84316    0.01224
   2.84424    0.01248
   2.84532    0.01274
   2.84641    0.01300
   2.84749    0.01328
   2.84857    0.01356
   2.84966    0.01385
   2.85074    0.01415
   2.85182    0.01446
   2.85291    0.01478
   2.85399    0.01511
   2.85508    0.01545
   2.85616    0.01580
   2.85724    0.01617
   2.85833    0.01655
   2.85941    0.01694
   2.86049    0.01735
   2.86158    0.01777
   2.86266    0.01821
   2.86374    0.01866
   2.86483    0.01913
   2.86591    0.01962
   2.86699    0.02013
   2.86808    0.02066
   2.86916    0.02121
   2.87024    0.02178
   2.87133    0.02238
   2.87241    0.02300
   2.87350    0.02364
   2.87458    0.02432
   2.87566    0.02502
   2.87675    0.02576
   2.87783    0.02653
   2.87891    0.02733
   2.88000    0.02817
   2.88108    0.02905
   2.88216    0.02998
   2.88325    0.03095
   2.88433    0.03196
   2.88541    0.03303
   2.88650    0.03415
   2.88758    0.03533
   2.88866    0.03657
   2.88975    0.03788
   2.89083    0.03926
   2.89192    0.04072
   2.89300    0.04226
   2.89408    0.04389
   2.89517    0.04561
   2.89625    0.04744
   2.89733    0.04938
   2.89842    0.05144
   2.89950    0.05364
   2.90058    0.05598
   2.90167    0.05847
   2.90275    0.06113
   2.90383    0.06398
   2.90492    0.06703
   2.90600    0.07030
   2.90708    0.07382
   2.90817    0.07760
   2.90925    0.08168
   2.91033    0.08608
   2.91142    0.09084
   2.91250    0.09601
  2.913586   0.101613
  2.914669   0.107713
  2.915753   0.114365
  2.916836   0.121635
  2.917920   0.129596
  2.919003   0.138337
  2.920087   0.147954
  2.921170   0.158562
  2.922254   0.170295
  2.923337   0.183297
  2.924421   0.197746
  2.925504   0.213843
  2.926588   0.231813
  2.927671   0.251923
  2.928755   0.274463
  2.929838   0.299770
  2.930922   0.328218
  2.932005   0.360194
  2.933089   0.396115
  2.934173   0.436387
  2.935256   0.481337
  2.936340   0.531191
  2.937423   0.585902
  2.938507   0.645065
  2.939590   0.707700
  2.940674   0.772025
  2.941757   0.835363
  2.942841   0.894101
  2.943924   0.943908
  2.945008   0.980346
  2.946091   0.999735
  2.947175   1.000000
  2.948258   0.981248
  2.949342   0.945737
  2.950425   0.897268
  2.951509   0.840328
  2.952593   0.779196
  2.953676   0.717467
  2.954759   0.657760
  2.955843   0.601780
  2.956927   0.550512
  2.958010   0.504355
  2.959094   0.463343
  2.960177   0.427311
  2.961261   0.395944
  2.962344   0.368910
  2.963428   0.345850
  2.964511   0.326435
  2.965595   0.310378
  2.966678   0.297419
  2.967762   0.287334
  2.968845   0.279932
  2.969929   0.275023
  2.971012   0.272411
  2.972096   0.271861
  2.973180   0.273064
  2.974263   0.275609
  2.975347   0.278959
  2.976430   0.282453
  2.977514   0.285359
  2.978597   0.286972
  2.979681   0.286749
  2.980764   0.284433
  2.981848   0.280114
  2.982931   0.274192
  2.984015   0.267254
  2.985098   0.259921
  2.986182   0.252709
  2.987265   0.245933
  2.988349   0.239680
  2.989432   0.233813
  2.990516   0.228022
  2.991599   0.221920
  2.992683   0.215138
  2.993766   0.207444
  2.994850   0.198794
  2.995934   0.189339
  2.997017   0.179380
  2.998100   0.169267
  2.999184   0.159331
  3.000268   0.149832
  3.001351   0.140930
  3.002434   0.132696
  3.003518   0.125120
  3.004602   0.118149
  3.005685   0.111700
  3.006769   0.105694
  3.007852   0.100076
   3.00894    0.09481
   3.01002    0.08991
   3.01110    0.08536
   3.01219    0.08120
   3.01327    0.07743
   3.01435    0.07407
   3.01544    0.07111
   3.01652    0.06856
   3.01760    0.06640
   3.01869    0.06462
   3.01977    0.06319
   3.02085    0.06211
   3.02194    0.06134
   3.02302    0.06084
   3.02411    0.06054
   3.02519    0.06036
   3.02627    0.06020
   3.02736    0.05993
   3.02844    0.05943
   3.02952    0.05859
   3.03061    0.05735
   3.03169    0.05569
   3.03277    0.05366
   3.03386    0.05135
   3.03494    0.04886
   3.03602    0.04632
   3.03711    0.04379
   3.03819    0.04136
   3.03927    0.03906
   3.04036    0.03691
   3.04144    0.03492
   3.04252    0.03310
   3.04361    0.03142
   3.04469    0.02989
   3.04578    0.02849
   3.04686    0.02720
   3.04794    0.02602
   3.04903    0.02494
   3.05011    0.02394
   3.05119    0.02301
   3.05228    0.02215
   3.05336    0.02135
   3.05444    0.02061
   3.05553    0.01991
   3.05661    0.01926
   3.05769    0.01864
   3.05878    0.01807
   3.05986    0.01752
   3.06094    0.01701
   3.06203    0.01652
   3.06311    0.01606
   3.06420    0.01562
   3.06528    0.01521
   3.06636    0.01481
   3.06745    0.01443
   3.06853    0.01407
   3.06961    0.01373
   3.07070    0.01339
   3.07178    0.01308
   3.07286    0.01277
   3.07395    0.01248
   3.07503    0.01220
   3.07611    0.01193
   3.07720    0.01167
   3.07828    0.01142
   3.07936    0.01118
   3.08045    0.01095
   3.08153    0.01072
   3.08262    0.01051
   3.08370    0.01030
   3.08478    0.01009
    3.0859     0.0099
    3.0869     0.0097
    3.0880     0.0095
    3.0891     0.0093
    3.0902     0.0092
    3.0913     0.0090
    3.0924     0.0088
    3.0935     0.0087
    3.0945     0.0085
    3.0956     0.0084
    3.0967     0.0082
    3.0978     0.0081
    3.0989     0.0080
    3.1000     0.0078
    3.1010     0.0077
    3.1021     0.0076
    3.1032     0.0074
    3.1043     0.0073
    3.1054     0.0072
    3.1065     0.0071
    3.1075     0.0070
    3.1086     0.0069
    3.1097     0.0068
    3.1108     0.0067
    3.1119     0.0066
    3.1130     0.0065
    3.1140     0.0064
    3.1151     0.0063
    3.1162     0.0062
    3.1173     0.0061
    3.1184     0.0060
    3.1195     0.0059
    3.1205     0.0058
    3.1216     0.0058
    3.1227     0.0057
    3.1238     0.0056
    3.1249     0.0055
    3.1260     0.0054
    3.1270     0.0054
    3.1281     0.0053
    3.1292     0.0052
    3.1303     0.0052
    3.1314     0.0051
    3.1325     0.0050
    3.1335     0.0050
    3.1346     0.0049
    3.1357     0.0048
    3.1368     0.0048
    3.1379     0.0047
    3.1390     0.0047
    3.1400     0.0046
    3.1411     0.0045
    3.1422     0.0045
    3.1433     0.0044
    3.1444     0.0044
    3.1455     0.0043
    3.1465     0.0043
    3.1476     0.0042
    3.1487     0.0042
    3.1498     0.0041
    3.1509     0.0041
    3.1520     0.0040
    3.1530     0.0040
    3.1541     0.0039
    3.1552     0.0039
    3.1563     0.0038
    3.1574     0.0038
    3.1585     0.0038
    3.1595     0.0037
    3.1606     0.0037
    3.1617     0.0036
    3.1628     0.0036
    3.1639     0.0036
    3.1650     0.0035
    3.1660     0.0035
    3.1671     0.0034
    3.1682     0.0034
    3.1693     0.0034
    3.1704     0.0033
    3.1715     0.0033
    3.1725     0.0033
    3.1736     0.0032
    3.1747     0.0032
  3.176     0.3173E-2
  3.177     0.3141E-2
  3.178     0.3109E-2
  3.179     0.3078E-2
  3.180     0.3047E-2
  3.181     0.3017E-2
  3.182     0.2987E-2
  3.183     0.2958E-2
  3.184     0.2929E-2
  3.186     0.2901E-2
  3.187     0.2873E-2
  3.188     0.2845E-2
  3.189     0.2818E-2
  3.190     0.2791E-2
  3.191     0.2765E-2
  3.192     0.2739E-2
  3.193     0.2713E-2
  3.194     0.2688E-2
  3.195     0.2663E-2
  3.196     0.2638E-2
  3.197     0.2614E-2
  3.199     0.2590E-2
  3.200     0.2566E-2
  3.201     0.2543E-2
  3.202     0.2520E-2
  3.203     0.2497E-2
  3.204     0.2475E-2
  3.205     0.2453E-2
  3.206     0.2431E-2
  3.207     0.2410E-2
  3.208     0.2389E-2
  3.209     0.2368E-2
  3.210     0.2347E-2
  3.212     0.2327E-2
  3.213     0.2307E-2
  3.214     0.2287E-2
  3.215     0.2267E-2
  3.216     0.2248E-2
  3.217     0.2229E-2
  3.218     0.2210E-2
  3.219     0.2192E-2
  3.220     0.2173E-2
  3.221     0.2155E-2
  3.222     0.2137E-2
  3.223     0.2120E-2
  3.225     0.2102E-2
  3.226     0.2085E-2
  3.227     0.2068E-2
  3.228     0.2051E-2
  3.229     0.2035E-2
  3.230     0.2018E-2
  3.231     0.2002E-2
  3.232     0.1986E-2
  3.233     0.1970E-2
  3.234     0.1955E-2
  3.235     0.1939E-2
  3.236     0.1924E-2
  3.238     0.1909E-2
  3.239     0.1894E-2
  3.240     0.1879E-2
  3.241     0.1865E-2
  3.242     0.1850E-2
  3.243     0.1836E-2
  3.244     0.1822E-2
  3.245     0.1808E-2
  3.246     0.1795E-2
  3.247     0.1781E-2
  3.248     0.1768E-2
  3.249     0.1754E-2
  3.251     0.1741E-2
  3.252     0.1728E-2
  3.253     0.1715E-2
  3.254     0.1703E-2
  3.255     0.1690E-2
  3.256     0.1678E-2
  3.257     0.1666E-2
  3.258     0.1653E-2
  3.259     0.1641E-2
  3.260     0.1630E-2
  3.261     0.1618E-2
  3.262     0.1606E-2
  3.264     0.1595E-2
  3.265     0.1583E-2
  3.266     0.1572E-2
  3.267     0.1561E-2
  3.268     0.1550E-2
  3.269     0.1539E-2
  3.270     0.1529E-2
  3.271     0.1518E-2
  3.272     0.1507E-2
  3.273     0.1497E-2
  3.274     0.1487E-2
  3.275     0.1476E-2
  3.277     0.1466E-2
  3.278     0.1456E-2
  3.279     0.1446E-2
  3.280     0.1437E-2
  3.281     0.1427E-2
  3.282     0.1417E-2
  3.283     0.1408E-2
  3.284     0.1398E-2
  3.285     0.1389E-2
  3.286     0.1380E-2
  3.287     0.1371E-2
  3.288     0.1362E-2
  3.290     0.1353E-2
  3.291     0.1344E-2
  3.292     0.1335E-2
  3.293     0.1326E-2
  3.294     0.1318E-2
  3.295     0.1309E-2
  3.296     0.1301E-2
  3.297     0.1293E-2
  3.298     0.1284E-2
  3.299     0.1276E-2
  3.300     0.1268E-2
  3.301     0.1260E-2
  3.303     0.1252E-2
  3.304     0.1244E-2
  3.305     0.1236E-2
  3.306     0.1229E-2
  3.307     0.1221E-2
  3.308     0.1213E-2
  3.309     0.1206E-2
  3.310     0.1198E-2
  3.311     0.1191E-2
  3.312     0.1184E-2
  3.313     0.1176E-2
  3.314     0.1169E-2
  3.316     0.1162E-2
  3.317     0.1155E-2
  3.318     0.1148E-2
  3.319     0.1141E-2
  3.320     0.1134E-2
  3.321     0.1127E-2
  3.322     0.1121E-2
  3.323     0.1114E-2
  3.324     0.1107E-2
  3.325     0.1101E-2
  3.326     0.1094E-2
  3.327     0.1088E-2
  3.329     0.1082E-2
  3.330     0.1075E-2
  3.331     0.1069E-2
  3.332     0.1063E-2
  3.333     0.1057E-2
  3.334     0.1050E-2
  3.335     0.1044E-2
  3.336     0.1038E-2
  3.337     0.1032E-2
  3.338     0.1027E-2
  3.339     0.1021E-2
  3.340     0.1015E-2
  3.342     0.1009E-2
  3.343     0.1003E-2
  3.344     0.9978E-3
  3.345     0.9922E-3
  3.346     0.9867E-3
  3.347     0.9811E-3
  3.348     0.9757E-3
  3.349     0.9703E-3
  3.350     0.9649E-3
  3.351     0.9596E-3
  3.352     0.9543E-3
  3.353     0.9490E-3
  3.355     0.9438E-3
  3.356     0.9387E-3
  3.357     0.9336E-3
  3.358     0.9285E-3
  3.359     0.9235E-3
  3.360     0.9185E-3
  3.361     0.9135E-3
  3.362     0.9086E-3
  3.363     0.9037E-3
  3.364     0.8989E-3
  3.365     0.8941E-3
  3.366     0.8894E-3
  3.368     0.8847E-3
  3.369     0.8800E-3
  3.370     0.8753E-3
  3.371     0.8707E-3
  3.372     0.8662E-3
  3.373     0.8616E-3
  3.374     0.8571E-3
  3.375     0.8527E-3
  3.376     0.8483E-3
  3.377     0.8439E-3
  3.378     0.8395E-3
  3.380     0.8352E-3
  3.381     0.8309E-3
  3.382     0.8266E-3
  3.383     0.8224E-3
  3.384     0.8182E-3
  3.385     0.8141E-3
  3.386     0.8099E-3
  3.387     0.8058E-3
  3.388     0.8018E-3
  3.389     0.7977E-3
  3.390     0.7937E-3
  3.391     0.7898E-3
  3.393     0.7858E-3
  3.394     0.7819E-3
  3.395     0.7780E-3
  3.396     0.7742E-3
  3.397     0.7703E-3
  3.398     0.7665E-3
  3.399     0.7628E-3
  3.400     0.7590E-3
  3.401     0.7553E-3
  3.402     0.7516E-3
  3.403     0.7480E-3
  3.404     0.7443E-3
  3.406     0.7407E-3
  3.407     0.7371E-3
  3.408     0.7336E-3
  3.409     0.7300E-3
  3.410     0.7265E-3
  3.411     0.7231E-3
  3.412     0.7196E-3
  3.413     0.7162E-3
  3.414     0.7128E-3
  3.415     0.7094E-3
  3.416     0.7060E-3
  3.417     0.7027E-3
  3.419     0.6994E-3
  3.420     0.6961E-3
  3.421     0.6928E-3
  3.422     0.6896E-3
  3.423     0.6864E-3
  3.424     0.6832E-3
  3.425     0.6800E-3
  3.426     0.6769E-3
  3.427     0.6737E-3
  3.428     0.6706E-3
  3.429     0.6675E-3
  3.430     0.6645E-3
  3.432     0.6614E-3
  3.433     0.6584E-3
  3.434     0.6554E-3
  3.435     0.6524E-3
  3.436     0.6495E-3
  3.437     0.6465E-3
  3.438     0.6436E-3
  3.439     0.6407E-3
  3.440     0.6378E-3
  3.441     0.6350E-3
  3.442     0.6321E-3
  3.443     0.6293E-3
  3.445     0.6265E-3
  3.446     0.6237E-3
  3.447     0.6209E-3
  3.448     0.6182E-3
  3.449     0.6155E-3
  3.450     0.6127E-3
  3.451     0.6101E-3
  3.452     0.6074E-3
  3.453     0.6047E-3
  3.454     0.6021E-3
  3.455     0.5995E-3
  3.456     0.5968E-3
  3.458     0.5943E-3
  3.459     0.5917E-3
  3.460     0.5891E-3
  3.461     0.5866E-3
  3.462     0.5841E-3
  3.463     0.5816E-3
  3.464     0.5791E-3
  3.465     0.5766E-3
  3.466     0.5741E-3
  3.467     0.5717E-3
  3.468     0.5693E-3
  3.469     0.5668E-3
  3.471     0.5644E-3
  3.472     0.5621E-3
  3.473     0.5597E-3
  3.474     0.5573E-3
  3.475     0.5550E-3
  3.476     0.5527E-3
  3.477     0.5504E-3
  3.478     0.5481E-3
  3.479     0.5458E-3
  3.480     0.5435E-3
  3.481     0.5413E-3
  3.482     0.5391E-3
  3.484     0.5368E-3
  3.485     0.5346E-3
  3.486     0.5324E-3
  3.487     0.5302E-3
  3.488     0.5281E-3
  3.489     0.5259E-3
  3.490     0.5238E-3
  3.491     0.5216E-3
  3.492     0.5195E-3
  3.493     0.5174E-3
  3.494     0.5153E-3
  3.495     0.5133E-3
  3.497     0.5112E-3
  3.498     0.5091E-3
  3.499     0.5071E-3
  3.500     0.5051E-3
  3.501     0.5031E-3
  3.502     0.5011E-3
  3.503     0.4991E-3
  3.504     0.4971E-3
  3.505     0.4951E-3
  3.506     0.4932E-3
  3.507     0.4912E-3
  3.508     0.4893E-3
  3.510     0.4874E-3
  3.511     0.4854E-3
  3.512     0.4835E-3
  3.513     0.4817E-3
  3.514     0.4798E-3
  3.515     0.4779E-3
  3.516     0.4761E-3
  3.517     0.4742E-3
  3.518     0.4724E-3
  3.519     0.4706E-3
  3.520     0.4687E-3
  3.521     0.4669E-3
  3.523     0.4651E-3
  3.524     0.4634E-3
  3.525     0.4616E-3
  3.526     0.4598E-3
  3.527     0.4581E-3
  3.528     0.4563E-3
  3.529     0.4546E-3
# 
# 06/20/2019 at 00:18 YPP @ br018.pvt.bridges.psc.edu [start]
# 06/20/2019 at 00:19                                 [end]
#  
# Timing   [Min/Max/Average]: 02s/02s/02s
#
# .-Input file : amp.in
# | excitons                     # [R] Excitons
# | amplitude                    # [R] Amplitude
# | BoseTemp=  0.02585     eV    # Bosonic Temperature
# | States= "1 - 20"             # Index of the BS state(s)
# | #DipWeight                   #  Weight the contribution to the exciton WFs with the dipoles
# | Degen_Step=0.1000E-4   eV    # Maximum energy separation of two degenerate states
