#                                                           
#   __   __     _        __  __       ____      U  ___  u   
#   \ \ / / U  /"\  U u |" \/ "| u U | __") u    \/"_ \/    
#    \ V /   \/ _ \/   \| |\/| |/   \|  _ \/     | | | |    
#   U_|"|_u  / ___ \    | |  | |     | |_) | .-,_| |_| |    
#     |_|   /_/   \_\   |_|  |_|     |____/   \_)-\___/     
# .-,//|(_   \\    >>  <<,-,,-.     _|| \\_        \\       
#  \_) (__) (__)  (__)  (./  \.)   (__) (__)      (__)      
#                                                           
#                                                           
#              GPL Version 4.1.4 Revision 76                
#                        MPI Build                          
#                http://www.yambo-code.org                  
#
# BSK|Identifier              :9599
#    |Dimension               :5098
#    |Bands                   :524 - 624
#    |Exchange           [res]: yes
#    |Correlation        [res]: no
#    |Kernel`s coupling       : no
#    |Exchange           [cpl]: no
#    |Correlation        [cpl]: no
#    |W interaction is bare   : no
#    |ALDA kernel in R-space  : no
#    |RL vectors    [exchange]:55207
#    |E/h energy range    [ev]:-1.000000 - -1.000000
#    |Coupling range     [o/o]: 100.0000 -  100.0000
#
# Electron-Hole pairs that contributes to Excitonic State 19 more than 5%
#
#  E    [eV]  Amplitude
#  
  2.447     0.4797E-3
  2.448     0.4816E-3
  2.449     0.4835E-3
  2.450     0.4855E-3
  2.451     0.4875E-3
  2.452     0.4894E-3
  2.453     0.4914E-3
  2.454     0.4934E-3
  2.456     0.4954E-3
  2.457     0.4974E-3
  2.458     0.4994E-3
  2.459     0.5015E-3
  2.460     0.5035E-3
  2.461     0.5056E-3
  2.462     0.5077E-3
  2.463     0.5098E-3
  2.464     0.5119E-3
  2.466     0.5140E-3
  2.467     0.5161E-3
  2.468     0.5183E-3
  2.469     0.5204E-3
  2.470     0.5226E-3
  2.471     0.5248E-3
  2.472     0.5270E-3
  2.473     0.5292E-3
  2.475     0.5314E-3
  2.476     0.5337E-3
  2.477     0.5359E-3
  2.478     0.5382E-3
  2.479     0.5405E-3
  2.480     0.5428E-3
  2.481     0.5451E-3
  2.482     0.5474E-3
  2.483     0.5498E-3
  2.485     0.5521E-3
  2.486     0.5545E-3
  2.487     0.5569E-3
  2.488     0.5593E-3
  2.489     0.5617E-3
  2.490     0.5642E-3
  2.491     0.5666E-3
  2.492     0.5691E-3
  2.493     0.5716E-3
  2.495     0.5741E-3
  2.496     0.5766E-3
  2.497     0.5791E-3
  2.498     0.5817E-3
  2.499     0.5842E-3
  2.500     0.5868E-3
  2.501     0.5894E-3
  2.502     0.5920E-3
  2.504     0.5947E-3
  2.505     0.5973E-3
  2.506     0.6000E-3
  2.507     0.6027E-3
  2.508     0.6054E-3
  2.509     0.6081E-3
  2.510     0.6109E-3
  2.511     0.6136E-3
  2.512     0.6164E-3
  2.514     0.6192E-3
  2.515     0.6220E-3
  2.516     0.6249E-3
  2.517     0.6277E-3
  2.518     0.6306E-3
  2.519     0.6335E-3
  2.520     0.6364E-3
  2.521     0.6394E-3
  2.523     0.6423E-3
  2.524     0.6453E-3
  2.525     0.6483E-3
  2.526     0.6513E-3
  2.527     0.6544E-3
  2.528     0.6574E-3
  2.529     0.6605E-3
  2.530     0.6636E-3
  2.531     0.6668E-3
  2.533     0.6699E-3
  2.534     0.6731E-3
  2.535     0.6763E-3
  2.536     0.6795E-3
  2.537     0.6828E-3
  2.538     0.6860E-3
  2.539     0.6893E-3
  2.540     0.6926E-3
  2.542     0.6960E-3
  2.543     0.6993E-3
  2.544     0.7027E-3
  2.545     0.7061E-3
  2.546     0.7096E-3
  2.547     0.7130E-3
  2.548     0.7165E-3
  2.549     0.7200E-3
  2.550     0.7236E-3
  2.552     0.7271E-3
  2.553     0.7307E-3
  2.554     0.7343E-3
  2.555     0.7380E-3
  2.556     0.7416E-3
  2.557     0.7453E-3
  2.558     0.7491E-3
  2.559     0.7528E-3
  2.560     0.7566E-3
  2.562     0.7604E-3
  2.563     0.7643E-3
  2.564     0.7681E-3
  2.565     0.7720E-3
  2.566     0.7760E-3
  2.567     0.7799E-3
  2.568     0.7839E-3
  2.569     0.7879E-3
  2.571     0.7920E-3
  2.572     0.7961E-3
  2.573     0.8002E-3
  2.574     0.8043E-3
  2.575     0.8085E-3
  2.576     0.8127E-3
  2.577     0.8170E-3
  2.578     0.8212E-3
  2.579     0.8256E-3
  2.581     0.8299E-3
  2.582     0.8343E-3
  2.583     0.8387E-3
  2.584     0.8432E-3
  2.585     0.8476E-3
  2.586     0.8522E-3
  2.587     0.8567E-3
  2.588     0.8613E-3
  2.590     0.8659E-3
  2.591     0.8706E-3
  2.592     0.8753E-3
  2.593     0.8801E-3
  2.594     0.8849E-3
  2.595     0.8897E-3
  2.596     0.8945E-3
  2.597     0.8994E-3
  2.598     0.9044E-3
  2.600     0.9094E-3
  2.601     0.9144E-3
  2.602     0.9195E-3
  2.603     0.9246E-3
  2.604     0.9297E-3
  2.605     0.9349E-3
  2.606     0.9402E-3
  2.607     0.9455E-3
  2.609     0.9508E-3
  2.610     0.9562E-3
  2.611     0.9616E-3
  2.612     0.9671E-3
  2.613     0.9726E-3
  2.614     0.9781E-3
  2.615     0.9837E-3
  2.616     0.9894E-3
  2.617     0.9951E-3
  2.619     0.1001E-2
  2.620     0.1007E-2
  2.621     0.1013E-2
  2.622     0.1018E-2
  2.623     0.1024E-2
  2.624     0.1030E-2
  2.625     0.1036E-2
  2.626     0.1043E-2
  2.628     0.1049E-2
  2.629     0.1055E-2
  2.630     0.1061E-2
  2.631     0.1068E-2
  2.632     0.1074E-2
  2.633     0.1080E-2
  2.634     0.1087E-2
  2.635     0.1094E-2
  2.636     0.1100E-2
  2.638     0.1107E-2
  2.639     0.1114E-2
  2.640     0.1120E-2
  2.641     0.1127E-2
  2.642     0.1134E-2
  2.643     0.1141E-2
  2.644     0.1148E-2
  2.645     0.1156E-2
  2.646     0.1163E-2
  2.648     0.1170E-2
  2.649     0.1177E-2
  2.650     0.1185E-2
  2.651     0.1192E-2
  2.652     0.1200E-2
  2.653     0.1207E-2
  2.654     0.1215E-2
  2.655     0.1223E-2
  2.657     0.1231E-2
  2.658     0.1239E-2
  2.659     0.1247E-2
  2.660     0.1255E-2
  2.661     0.1263E-2
  2.662     0.1271E-2
  2.663     0.1279E-2
  2.664     0.1288E-2
  2.665     0.1296E-2
  2.667     0.1305E-2
  2.668     0.1314E-2
  2.669     0.1322E-2
  2.670     0.1331E-2
  2.671     0.1340E-2
  2.672     0.1349E-2
  2.673     0.1358E-2
  2.674     0.1367E-2
  2.676     0.1377E-2
  2.677     0.1386E-2
  2.678     0.1396E-2
  2.679     0.1405E-2
  2.680     0.1415E-2
  2.681     0.1425E-2
  2.682     0.1434E-2
  2.683     0.1444E-2
  2.684     0.1455E-2
  2.686     0.1465E-2
  2.687     0.1475E-2
  2.688     0.1485E-2
  2.689     0.1496E-2
  2.690     0.1507E-2
  2.691     0.1517E-2
  2.692     0.1528E-2
  2.693     0.1539E-2
  2.695     0.1550E-2
  2.696     0.1562E-2
  2.697     0.1573E-2
  2.698     0.1584E-2
  2.699     0.1596E-2
  2.700     0.1608E-2
  2.701     0.1619E-2
  2.702     0.1631E-2
  2.703     0.1644E-2
  2.705     0.1656E-2
  2.706     0.1668E-2
  2.707     0.1681E-2
  2.708     0.1693E-2
  2.709     0.1706E-2
  2.710     0.1719E-2
  2.711     0.1732E-2
  2.712     0.1746E-2
  2.714     0.1759E-2
  2.715     0.1773E-2
  2.716     0.1786E-2
  2.717     0.1800E-2
  2.718     0.1814E-2
  2.719     0.1829E-2
  2.720     0.1843E-2
  2.721     0.1857E-2
  2.722     0.1872E-2
  2.724     0.1887E-2
  2.725     0.1902E-2
  2.726     0.1917E-2
  2.727     0.1933E-2
  2.728     0.1949E-2
  2.729     0.1964E-2
  2.730     0.1980E-2
  2.731     0.1997E-2
  2.732     0.2013E-2
  2.734     0.2030E-2
  2.735     0.2047E-2
  2.736     0.2064E-2
  2.737     0.2081E-2
  2.738     0.2098E-2
  2.739     0.2116E-2
  2.740     0.2134E-2
  2.741     0.2152E-2
  2.743     0.2171E-2
  2.744     0.2189E-2
  2.745     0.2208E-2
  2.746     0.2227E-2
  2.747     0.2247E-2
  2.748     0.2266E-2
  2.749     0.2286E-2
  2.750     0.2306E-2
  2.751     0.2327E-2
  2.753     0.2348E-2
  2.754     0.2369E-2
  2.755     0.2390E-2
  2.756     0.2411E-2
  2.757     0.2433E-2
  2.758     0.2455E-2
  2.759     0.2478E-2
  2.760     0.2501E-2
  2.762     0.2524E-2
  2.763     0.2547E-2
  2.764     0.2571E-2
  2.765     0.2595E-2
  2.766     0.2619E-2
  2.767     0.2644E-2
  2.768     0.2669E-2
  2.769     0.2695E-2
  2.770     0.2720E-2
  2.772     0.2747E-2
    2.7727     0.0028
    2.7738     0.0028
    2.7749     0.0028
    2.7760     0.0029
    2.7772     0.0029
    2.7783     0.0029
    2.7794     0.0029
    2.7805     0.0030
    2.7816     0.0030
    2.7827     0.0030
    2.7839     0.0031
    2.7850     0.0031
    2.7861     0.0031
    2.7872     0.0032
    2.7883     0.0032
    2.7894     0.0032
    2.7906     0.0033
    2.7917     0.0033
    2.7928     0.0033
    2.7939     0.0034
    2.7950     0.0034
    2.7961     0.0034
    2.7973     0.0035
    2.7984     0.0035
    2.7995     0.0035
    2.8006     0.0036
    2.8017     0.0036
    2.8028     0.0037
    2.8040     0.0037
    2.8051     0.0038
    2.8062     0.0038
    2.8073     0.0038
    2.8084     0.0039
    2.8095     0.0039
    2.8107     0.0040
    2.8118     0.0040
    2.8129     0.0041
    2.8140     0.0041
    2.8151     0.0042
    2.8162     0.0042
    2.8174     0.0043
    2.8185     0.0043
    2.8196     0.0044
    2.8207     0.0044
    2.8218     0.0045
    2.8229     0.0045
    2.8241     0.0046
    2.8252     0.0047
    2.8263     0.0047
    2.8274     0.0048
    2.8285     0.0048
    2.8296     0.0049
    2.8308     0.0050
    2.8319     0.0050
    2.8330     0.0051
    2.8341     0.0052
    2.8352     0.0052
    2.8363     0.0053
    2.8375     0.0054
    2.8386     0.0054
    2.8397     0.0055
    2.8408     0.0056
    2.8419     0.0057
    2.8430     0.0058
    2.8442     0.0058
    2.8453     0.0059
    2.8464     0.0060
    2.8475     0.0061
    2.8486     0.0062
    2.8497     0.0063
    2.8509     0.0064
    2.8520     0.0065
    2.8531     0.0066
    2.8542     0.0067
    2.8553     0.0068
    2.8564     0.0069
    2.8576     0.0070
    2.8587     0.0071
    2.8598     0.0072
    2.8609     0.0073
    2.8620     0.0074
    2.8632     0.0076
    2.8643     0.0077
    2.8654     0.0078
    2.8665     0.0079
    2.8676     0.0081
    2.8687     0.0082
    2.8699     0.0084
    2.8710     0.0085
    2.8721     0.0086
    2.8732     0.0088
    2.8743     0.0090
    2.8754     0.0091
    2.8766     0.0093
    2.8777     0.0095
    2.8788     0.0096
    2.8799     0.0098
   2.88102    0.01001
   2.88214    0.01021
   2.88325    0.01041
   2.88437    0.01061
   2.88549    0.01082
   2.88660    0.01104
   2.88772    0.01127
   2.88884    0.01150
   2.88995    0.01175
   2.89107    0.01200
   2.89219    0.01225
   2.89330    0.01252
   2.89442    0.01280
   2.89554    0.01309
   2.89665    0.01339
   2.89777    0.01370
   2.89889    0.01402
   2.90000    0.01435
   2.90112    0.01470
   2.90224    0.01506
   2.90335    0.01544
   2.90447    0.01583
   2.90559    0.01624
   2.90670    0.01667
   2.90782    0.01712
   2.90894    0.01759
   2.91006    0.01808
   2.91117    0.01859
   2.91229    0.01913
   2.91341    0.01970
   2.91452    0.02030
   2.91564    0.02094
   2.91676    0.02161
   2.91787    0.02232
   2.91899    0.02307
   2.92011    0.02387
   2.92122    0.02472
   2.92234    0.02563
   2.92346    0.02660
   2.92457    0.02765
   2.92569    0.02877
   2.92681    0.02998
   2.92792    0.03129
   2.92904    0.03271
   2.93016    0.03425
   2.93127    0.03592
   2.93239    0.03775
   2.93351    0.03974
   2.93462    0.04190
   2.93574    0.04426
   2.93686    0.04680
   2.93798    0.04954
   2.93909    0.05243
   2.94021    0.05545
   2.94133    0.05853
   2.94244    0.06156
   2.94356    0.06443
   2.94468    0.06700
   2.94579    0.06918
   2.94691    0.07088
   2.94803    0.07210
   2.94914    0.07290
   2.95026    0.07339
   2.95138    0.07372
   2.95249    0.07403
   2.95361    0.07445
   2.95473    0.07507
   2.95584    0.07597
   2.95696    0.07720
   2.95808    0.07879
   2.95919    0.08078
   2.96031    0.08319
   2.96143    0.08603
   2.96254    0.08933
   2.96366    0.09312
   2.96478    0.09742
  2.965895   0.102272
  2.967012   0.107709
  2.968129   0.113774
  2.969245   0.120502
  2.970362   0.127928
  2.971479   0.136068
  2.972595   0.144920
  2.973712   0.154453
  2.974829   0.164590
  2.975946   0.175223
  2.977063   0.186210
  2.978180   0.197421
  2.979296   0.208766
  2.980413   0.220257
  2.981530   0.232024
  2.982647   0.244336
  2.983763   0.257552
  2.984880   0.272092
  2.985997   0.288376
  2.987114   0.306812
  2.988231   0.327758
  2.989348   0.351550
  2.990464   0.378483
  2.991581   0.408868
  2.992698   0.443004
  2.993815   0.481223
  2.994931   0.523814
  2.996048   0.570988
  2.997165   0.622735
  2.998282   0.678623
  2.999399   0.737652
  3.000515   0.797980
  3.001632   0.856875
  3.002749   0.910661
  3.003866   0.955112
  3.004982   0.985998
  3.006099   1.000000
  3.007216   0.995487
  3.008333   0.972981
  3.009450   0.935023
  3.010567   0.885496
  3.011683   0.828794
  3.012800   0.768987
  3.013917   0.709427
  3.015034   0.652498
  3.016150   0.599758
  3.017267   0.552035
  3.018384   0.509645
  3.019501   0.472583
  3.020618   0.440588
  3.021734   0.413281
  3.022851   0.390160
  3.023968   0.370659
  3.025085   0.354118
  3.026202   0.339821
  3.027318   0.326997
  3.028435   0.314904
  3.029552   0.302890
  3.030669   0.290498
  3.031786   0.277502
  3.032902   0.263923
  3.034019   0.249938
  3.035136   0.235815
  3.036253   0.221812
  3.037369   0.208146
  3.038486   0.194973
  3.039603   0.182404
  3.040720   0.170526
  3.041837   0.159398
  3.042953   0.149068
  3.044070   0.139553
  3.045187   0.130858
  3.046304   0.122963
  3.047421   0.115837
  3.048537   0.109436
  3.049654   0.103716
   3.05077    0.09863
   3.05189    0.09412
   3.05300    0.09016
   3.05412    0.08668
   3.05524    0.08364
   3.05635    0.08098
   3.05747    0.07864
   3.05859    0.07654
   3.05971    0.07458
   3.06082    0.07266
   3.06194    0.07069
   3.06306    0.06859
   3.06417    0.06630
   3.06529    0.06384
   3.06641    0.06122
   3.06752    0.05850
   3.06864    0.05576
   3.06976    0.05306
   3.07087    0.05044
   3.07199    0.04795
   3.07311    0.04561
   3.07422    0.04341
   3.07534    0.04137
   3.07646    0.03948
   3.07757    0.03773
   3.07869    0.03610
   3.07981    0.03460
   3.08092    0.03320
   3.08204    0.03189
   3.08316    0.03068
   3.08427    0.02954
   3.08539    0.02848
   3.08651    0.02748
   3.08763    0.02654
   3.08874    0.02566
   3.08986    0.02483
   3.09098    0.02404
   3.09209    0.02329
   3.09321    0.02258
   3.09433    0.02191
   3.09544    0.02127
   3.09656    0.02066
   3.09768    0.02008
   3.09879    0.01953
   3.09991    0.01900
   3.10103    0.01850
   3.10214    0.01801
   3.10326    0.01755
   3.10438    0.01710
   3.10549    0.01668
   3.10661    0.01627
   3.10773    0.01587
   3.10884    0.01549
   3.10996    0.01513
   3.11108    0.01478
   3.11219    0.01444
   3.11331    0.01411
   3.11443    0.01380
   3.11555    0.01350
   3.11666    0.01320
   3.11778    0.01292
   3.11890    0.01264
   3.12001    0.01238
   3.12113    0.01212
   3.12225    0.01187
   3.12336    0.01163
   3.12448    0.01140
   3.12560    0.01117
   3.12671    0.01096
   3.12783    0.01074
   3.12895    0.01054
   3.13006    0.01034
   3.13118    0.01014
    3.1323     0.0100
    3.1334     0.0098
    3.1345     0.0096
    3.1356     0.0094
    3.1368     0.0093
    3.1379     0.0091
    3.1390     0.0089
    3.1401     0.0088
    3.1412     0.0086
    3.1423     0.0085
    3.1435     0.0083
    3.1446     0.0082
    3.1457     0.0081
    3.1468     0.0079
    3.1479     0.0078
    3.1490     0.0077
    3.1502     0.0075
    3.1513     0.0074
    3.1524     0.0073
    3.1535     0.0072
    3.1546     0.0071
    3.1557     0.0070
    3.1569     0.0069
    3.1580     0.0068
    3.1591     0.0067
    3.1602     0.0066
    3.1613     0.0065
    3.1625     0.0064
    3.1636     0.0063
    3.1647     0.0062
    3.1658     0.0061
    3.1669     0.0060
    3.1680     0.0059
    3.1692     0.0058
    3.1703     0.0058
    3.1714     0.0057
    3.1725     0.0056
    3.1736     0.0055
    3.1747     0.0054
    3.1759     0.0054
    3.1770     0.0053
    3.1781     0.0052
    3.1792     0.0052
    3.1803     0.0051
    3.1814     0.0050
    3.1826     0.0050
    3.1837     0.0049
    3.1848     0.0048
    3.1859     0.0048
    3.1870     0.0047
    3.1881     0.0047
    3.1893     0.0046
    3.1904     0.0045
    3.1915     0.0045
    3.1926     0.0044
    3.1937     0.0044
    3.1948     0.0043
    3.1960     0.0043
    3.1971     0.0042
    3.1982     0.0042
    3.1993     0.0041
    3.2004     0.0041
    3.2015     0.0040
    3.2027     0.0040
    3.2038     0.0039
    3.2049     0.0039
    3.2060     0.0038
    3.2071     0.0038
    3.2082     0.0038
    3.2094     0.0037
    3.2105     0.0037
    3.2116     0.0036
    3.2127     0.0036
    3.2138     0.0036
    3.2149     0.0035
    3.2161     0.0035
    3.2172     0.0034
    3.2183     0.0034
    3.2194     0.0034
    3.2205     0.0033
    3.2216     0.0033
    3.2228     0.0033
    3.2239     0.0032
  3.225     0.3197E-2
  3.226     0.3165E-2
  3.227     0.3132E-2
  3.228     0.3100E-2
  3.229     0.3069E-2
  3.231     0.3038E-2
  3.232     0.3007E-2
  3.233     0.2977E-2
  3.234     0.2948E-2
  3.235     0.2919E-2
  3.236     0.2890E-2
  3.237     0.2862E-2
  3.238     0.2834E-2
  3.240     0.2807E-2
  3.241     0.2780E-2
  3.242     0.2753E-2
  3.243     0.2727E-2
  3.244     0.2701E-2
  3.245     0.2675E-2
  3.246     0.2650E-2
  3.247     0.2625E-2
  3.248     0.2601E-2
  3.250     0.2577E-2
  3.251     0.2553E-2
  3.252     0.2529E-2
  3.253     0.2506E-2
  3.254     0.2483E-2
  3.255     0.2461E-2
  3.256     0.2439E-2
  3.257     0.2417E-2
  3.258     0.2395E-2
  3.260     0.2374E-2
  3.261     0.2353E-2
  3.262     0.2332E-2
  3.263     0.2312E-2
  3.264     0.2291E-2
  3.265     0.2272E-2
  3.266     0.2252E-2
  3.267     0.2232E-2
  3.269     0.2213E-2
  3.270     0.2194E-2
  3.271     0.2176E-2
  3.272     0.2157E-2
  3.273     0.2139E-2
  3.274     0.2121E-2
  3.275     0.2103E-2
  3.276     0.2086E-2
  3.277     0.2068E-2
  3.279     0.2051E-2
  3.280     0.2034E-2
  3.281     0.2018E-2
  3.282     0.2001E-2
  3.283     0.1985E-2
  3.284     0.1969E-2
  3.285     0.1953E-2
  3.286     0.1937E-2
  3.288     0.1922E-2
  3.289     0.1907E-2
  3.290     0.1891E-2
  3.291     0.1876E-2
  3.292     0.1862E-2
  3.293     0.1847E-2
  3.294     0.1833E-2
  3.295     0.1818E-2
  3.296     0.1804E-2
  3.298     0.1790E-2
  3.299     0.1777E-2
  3.300     0.1763E-2
  3.301     0.1750E-2
  3.302     0.1736E-2
  3.303     0.1723E-2
  3.304     0.1710E-2
  3.305     0.1697E-2
  3.307     0.1685E-2
  3.308     0.1672E-2
  3.309     0.1660E-2
  3.310     0.1647E-2
  3.311     0.1635E-2
  3.312     0.1623E-2
  3.313     0.1611E-2
  3.314     0.1599E-2
  3.315     0.1588E-2
  3.317     0.1576E-2
  3.318     0.1565E-2
  3.319     0.1554E-2
  3.320     0.1543E-2
  3.321     0.1532E-2
  3.322     0.1521E-2
  3.323     0.1510E-2
  3.324     0.1499E-2
  3.326     0.1489E-2
  3.327     0.1478E-2
  3.328     0.1468E-2
  3.329     0.1458E-2
  3.330     0.1448E-2
  3.331     0.1438E-2
  3.332     0.1428E-2
  3.333     0.1418E-2
  3.334     0.1408E-2
  3.336     0.1399E-2
  3.337     0.1389E-2
  3.338     0.1380E-2
  3.339     0.1370E-2
  3.340     0.1361E-2
  3.341     0.1352E-2
  3.342     0.1343E-2
  3.343     0.1334E-2
  3.344     0.1325E-2
  3.346     0.1316E-2
  3.347     0.1308E-2
  3.348     0.1299E-2
  3.349     0.1291E-2
  3.350     0.1282E-2
  3.351     0.1274E-2
  3.352     0.1266E-2
  3.353     0.1257E-2
  3.355     0.1249E-2
  3.356     0.1241E-2
  3.357     0.1233E-2
  3.358     0.1225E-2
  3.359     0.1218E-2
  3.360     0.1210E-2
  3.361     0.1202E-2
  3.362     0.1195E-2
  3.363     0.1187E-2
  3.365     0.1180E-2
  3.366     0.1172E-2
  3.367     0.1165E-2
  3.368     0.1158E-2
  3.369     0.1151E-2
  3.370     0.1144E-2
  3.371     0.1137E-2
  3.372     0.1130E-2
  3.374     0.1123E-2
  3.375     0.1116E-2
  3.376     0.1109E-2
  3.377     0.1102E-2
  3.378     0.1096E-2
  3.379     0.1089E-2
  3.380     0.1083E-2
  3.381     0.1076E-2
  3.382     0.1070E-2
  3.384     0.1063E-2
  3.385     0.1057E-2
  3.386     0.1051E-2
  3.387     0.1045E-2
  3.388     0.1038E-2
  3.389     0.1032E-2
  3.390     0.1026E-2
  3.391     0.1020E-2
  3.393     0.1014E-2
  3.394     0.1009E-2
  3.395     0.1003E-2
  3.396     0.9970E-3
  3.397     0.9913E-3
  3.398     0.9856E-3
  3.399     0.9800E-3
  3.400     0.9744E-3
  3.401     0.9689E-3
  3.403     0.9634E-3
  3.404     0.9580E-3
  3.405     0.9526E-3
  3.406     0.9472E-3
  3.407     0.9419E-3
  3.408     0.9367E-3
  3.409     0.9315E-3
  3.410     0.9263E-3
  3.411     0.9212E-3
  3.413     0.9161E-3
  3.414     0.9111E-3
  3.415     0.9061E-3
  3.416     0.9011E-3
  3.417     0.8962E-3
  3.418     0.8913E-3
  3.419     0.8865E-3
  3.420     0.8817E-3
  3.422     0.8769E-3
  3.423     0.8722E-3
  3.424     0.8675E-3
  3.425     0.8629E-3
  3.426     0.8583E-3
  3.427     0.8537E-3
  3.428     0.8492E-3
  3.429     0.8447E-3
  3.430     0.8402E-3
  3.432     0.8358E-3
  3.433     0.8314E-3
  3.434     0.8270E-3
  3.435     0.8227E-3
  3.436     0.8184E-3
  3.437     0.8142E-3
  3.438     0.8100E-3
  3.439     0.8058E-3
  3.441     0.8016E-3
  3.442     0.7975E-3
  3.443     0.7934E-3
  3.444     0.7893E-3
  3.445     0.7853E-3
  3.446     0.7813E-3
  3.447     0.7773E-3
  3.448     0.7734E-3
  3.449     0.7695E-3
  3.451     0.7656E-3
  3.452     0.7618E-3
  3.453     0.7579E-3
  3.454     0.7541E-3
  3.455     0.7504E-3
  3.456     0.7466E-3
  3.457     0.7429E-3
  3.458     0.7392E-3
  3.460     0.7356E-3
  3.461     0.7320E-3
  3.462     0.7284E-3
  3.463     0.7248E-3
  3.464     0.7213E-3
  3.465     0.7177E-3
  3.466     0.7142E-3
  3.467     0.7108E-3
  3.468     0.7073E-3
  3.470     0.7039E-3
  3.471     0.7005E-3
  3.472     0.6971E-3
  3.473     0.6938E-3
  3.474     0.6905E-3
  3.475     0.6872E-3
  3.476     0.6839E-3
  3.477     0.6806E-3
  3.479     0.6774E-3
  3.480     0.6742E-3
  3.481     0.6710E-3
  3.482     0.6679E-3
  3.483     0.6647E-3
  3.484     0.6616E-3
  3.485     0.6585E-3
  3.486     0.6555E-3
  3.487     0.6524E-3
  3.489     0.6494E-3
  3.490     0.6464E-3
  3.491     0.6434E-3
  3.492     0.6404E-3
  3.493     0.6375E-3
  3.494     0.6345E-3
  3.495     0.6316E-3
  3.496     0.6288E-3
  3.497     0.6259E-3
  3.499     0.6230E-3
  3.500     0.6202E-3
  3.501     0.6174E-3
  3.502     0.6146E-3
  3.503     0.6118E-3
  3.504     0.6091E-3
  3.505     0.6064E-3
  3.506     0.6036E-3
  3.508     0.6010E-3
  3.509     0.5983E-3
  3.510     0.5956E-3
  3.511     0.5930E-3
  3.512     0.5903E-3
  3.513     0.5877E-3
  3.514     0.5851E-3
  3.515     0.5826E-3
  3.516     0.5800E-3
  3.518     0.5775E-3
  3.519     0.5750E-3
  3.520     0.5725E-3
  3.521     0.5700E-3
  3.522     0.5675E-3
  3.523     0.5650E-3
  3.524     0.5626E-3
  3.525     0.5602E-3
  3.527     0.5578E-3
  3.528     0.5554E-3
  3.529     0.5530E-3
  3.530     0.5506E-3
  3.531     0.5483E-3
  3.532     0.5459E-3
  3.533     0.5436E-3
  3.534     0.5413E-3
  3.535     0.5390E-3
  3.537     0.5367E-3
  3.538     0.5345E-3
  3.539     0.5322E-3
  3.540     0.5300E-3
  3.541     0.5278E-3
  3.542     0.5256E-3
  3.543     0.5234E-3
  3.544     0.5212E-3
  3.546     0.5191E-3
  3.547     0.5169E-3
  3.548     0.5148E-3
  3.549     0.5126E-3
  3.550     0.5105E-3
  3.551     0.5084E-3
  3.552     0.5064E-3
  3.553     0.5043E-3
  3.554     0.5022E-3
  3.556     0.5002E-3
  3.557     0.4981E-3
  3.558     0.4961E-3
  3.559     0.4941E-3
  3.560     0.4921E-3
  3.561     0.4901E-3
  3.562     0.4882E-3
# 
# 06/20/2019 at 00:18 YPP @ br018.pvt.bridges.psc.edu [start]
# 06/20/2019 at 00:19                                 [end]
#  
# Timing   [Min/Max/Average]: 02s/02s/02s
#
# .-Input file : amp.in
# | excitons                     # [R] Excitons
# | amplitude                    # [R] Amplitude
# | BoseTemp=  0.02585     eV    # Bosonic Temperature
# | States= "1 - 20"             # Index of the BS state(s)
# | #DipWeight                   #  Weight the contribution to the exciton WFs with the dipoles
# | Degen_Step=0.1000E-4   eV    # Maximum energy separation of two degenerate states
