#                                                           
#   __   __     _        __  __       ____      U  ___  u   
#   \ \ / / U  /"\  U u |" \/ "| u U | __") u    \/"_ \/    
#    \ V /   \/ _ \/   \| |\/| |/   \|  _ \/     | | | |    
#   U_|"|_u  / ___ \    | |  | |     | |_) | .-,_| |_| |    
#     |_|   /_/   \_\   |_|  |_|     |____/   \_)-\___/     
# .-,//|(_   \\    >>  <<,-,,-.     _|| \\_        \\       
#  \_) (__) (__)  (__)  (./  \.)   (__) (__)      (__)      
#                                                           
#                                                           
#              GPL Version 4.1.4 Revision 76                
#                        MPI Build                          
#                http://www.yambo-code.org                  
#
# BSK|Identifier              :9599
#    |Dimension               :5098
#    |Bands                   :524 - 624
#    |Exchange           [res]: yes
#    |Correlation        [res]: no
#    |Kernel`s coupling       : no
#    |Exchange           [cpl]: no
#    |Correlation        [cpl]: no
#    |W interaction is bare   : no
#    |ALDA kernel in R-space  : no
#    |RL vectors    [exchange]:55207
#    |E/h energy range    [ev]:-1.000000 - -1.000000
#    |Coupling range     [o/o]: 100.0000 -  100.0000
#
# Electron-Hole pairs that contributes to Excitonic State 10 more than 5%
#
#  E    [eV]  Amplitude
#  
  2.454     0.3998E-3
  2.455     0.4014E-3
  2.456     0.4031E-3
  2.457     0.4047E-3
  2.458     0.4063E-3
  2.459     0.4080E-3
  2.460     0.4096E-3
  2.461     0.4113E-3
  2.462     0.4129E-3
  2.463     0.4146E-3
  2.464     0.4163E-3
  2.465     0.4180E-3
  2.466     0.4197E-3
  2.467     0.4215E-3
  2.468     0.4232E-3
  2.469     0.4249E-3
  2.470     0.4267E-3
  2.471     0.4285E-3
  2.472     0.4302E-3
  2.473     0.4320E-3
  2.474     0.4338E-3
  2.475     0.4357E-3
  2.476     0.4375E-3
  2.477     0.4393E-3
  2.478     0.4412E-3
  2.479     0.4430E-3
  2.480     0.4449E-3
  2.481     0.4468E-3
  2.482     0.4487E-3
  2.483     0.4506E-3
  2.484     0.4525E-3
  2.485     0.4544E-3
  2.486     0.4564E-3
  2.487     0.4583E-3
  2.488     0.4603E-3
  2.489     0.4623E-3
  2.490     0.4643E-3
  2.491     0.4663E-3
  2.492     0.4683E-3
  2.493     0.4703E-3
  2.494     0.4724E-3
  2.495     0.4744E-3
  2.496     0.4765E-3
  2.497     0.4786E-3
  2.498     0.4807E-3
  2.499     0.4828E-3
  2.500     0.4849E-3
  2.501     0.4871E-3
  2.502     0.4892E-3
  2.503     0.4914E-3
  2.504     0.4936E-3
  2.505     0.4958E-3
  2.506     0.4980E-3
  2.507     0.5002E-3
  2.508     0.5025E-3
  2.509     0.5047E-3
  2.510     0.5070E-3
  2.511     0.5093E-3
  2.512     0.5116E-3
  2.513     0.5139E-3
  2.514     0.5163E-3
  2.515     0.5186E-3
  2.516     0.5210E-3
  2.517     0.5234E-3
  2.518     0.5258E-3
  2.519     0.5282E-3
  2.520     0.5306E-3
  2.521     0.5331E-3
  2.522     0.5355E-3
  2.523     0.5380E-3
  2.524     0.5405E-3
  2.525     0.5431E-3
  2.526     0.5456E-3
  2.527     0.5482E-3
  2.528     0.5507E-3
  2.529     0.5533E-3
  2.530     0.5559E-3
  2.531     0.5586E-3
  2.532     0.5612E-3
  2.533     0.5639E-3
  2.534     0.5666E-3
  2.535     0.5693E-3
  2.536     0.5720E-3
  2.537     0.5747E-3
  2.538     0.5775E-3
  2.539     0.5803E-3
  2.540     0.5831E-3
  2.541     0.5859E-3
  2.542     0.5888E-3
  2.543     0.5916E-3
  2.544     0.5945E-3
  2.545     0.5974E-3
  2.546     0.6004E-3
  2.547     0.6033E-3
  2.548     0.6063E-3
  2.549     0.6093E-3
  2.550     0.6123E-3
  2.551     0.6154E-3
  2.552     0.6184E-3
  2.553     0.6215E-3
  2.554     0.6246E-3
  2.555     0.6277E-3
  2.556     0.6309E-3
  2.557     0.6341E-3
  2.558     0.6373E-3
  2.559     0.6405E-3
  2.560     0.6438E-3
  2.561     0.6470E-3
  2.562     0.6503E-3
  2.563     0.6537E-3
  2.564     0.6570E-3
  2.565     0.6604E-3
  2.566     0.6638E-3
  2.567     0.6672E-3
  2.568     0.6707E-3
  2.569     0.6742E-3
  2.570     0.6777E-3
  2.571     0.6812E-3
  2.572     0.6848E-3
  2.573     0.6884E-3
  2.574     0.6920E-3
  2.575     0.6957E-3
  2.576     0.6994E-3
  2.577     0.7031E-3
  2.578     0.7068E-3
  2.579     0.7106E-3
  2.580     0.7144E-3
  2.581     0.7182E-3
  2.582     0.7221E-3
  2.583     0.7260E-3
  2.584     0.7299E-3
  2.585     0.7339E-3
  2.586     0.7379E-3
  2.587     0.7419E-3
  2.588     0.7460E-3
  2.589     0.7500E-3
  2.590     0.7542E-3
  2.591     0.7583E-3
  2.592     0.7625E-3
  2.593     0.7667E-3
  2.594     0.7710E-3
  2.595     0.7753E-3
  2.596     0.7796E-3
  2.597     0.7840E-3
  2.598     0.7884E-3
  2.599     0.7929E-3
  2.600     0.7973E-3
  2.601     0.8019E-3
  2.602     0.8064E-3
  2.603     0.8110E-3
  2.604     0.8157E-3
  2.605     0.8203E-3
  2.606     0.8251E-3
  2.607     0.8298E-3
  2.608     0.8346E-3
  2.609     0.8395E-3
  2.610     0.8443E-3
  2.611     0.8493E-3
  2.612     0.8542E-3
  2.613     0.8592E-3
  2.614     0.8643E-3
  2.615     0.8694E-3
  2.616     0.8746E-3
  2.617     0.8797E-3
  2.618     0.8850E-3
  2.619     0.8903E-3
  2.620     0.8956E-3
  2.621     0.9010E-3
  2.622     0.9064E-3
  2.623     0.9119E-3
  2.624     0.9174E-3
  2.625     0.9230E-3
  2.626     0.9286E-3
  2.627     0.9343E-3
  2.628     0.9401E-3
  2.629     0.9459E-3
  2.630     0.9517E-3
  2.631     0.9576E-3
  2.632     0.9635E-3
  2.633     0.9695E-3
  2.634     0.9756E-3
  2.635     0.9817E-3
  2.636     0.9879E-3
  2.637     0.9941E-3
  2.638     0.1000E-2
  2.639     0.1007E-2
  2.640     0.1013E-2
  2.641     0.1020E-2
  2.642     0.1026E-2
  2.643     0.1033E-2
  2.644     0.1040E-2
  2.645     0.1046E-2
  2.646     0.1053E-2
  2.647     0.1060E-2
  2.648     0.1067E-2
  2.649     0.1074E-2
  2.650     0.1081E-2
  2.651     0.1088E-2
  2.652     0.1095E-2
  2.653     0.1103E-2
  2.654     0.1110E-2
  2.655     0.1117E-2
  2.656     0.1125E-2
  2.657     0.1132E-2
  2.658     0.1140E-2
  2.659     0.1148E-2
  2.660     0.1156E-2
  2.661     0.1163E-2
  2.662     0.1171E-2
  2.663     0.1180E-2
  2.664     0.1188E-2
  2.665     0.1196E-2
  2.666     0.1204E-2
  2.667     0.1213E-2
  2.668     0.1221E-2
  2.669     0.1230E-2
  2.670     0.1238E-2
  2.671     0.1247E-2
  2.672     0.1256E-2
  2.673     0.1265E-2
  2.674     0.1274E-2
  2.675     0.1283E-2
  2.676     0.1292E-2
  2.677     0.1302E-2
  2.678     0.1311E-2
  2.679     0.1321E-2
  2.680     0.1330E-2
  2.681     0.1340E-2
  2.682     0.1350E-2
  2.683     0.1360E-2
  2.684     0.1370E-2
  2.685     0.1380E-2
  2.686     0.1390E-2
  2.687     0.1401E-2
  2.688     0.1411E-2
  2.689     0.1422E-2
  2.690     0.1433E-2
  2.691     0.1444E-2
  2.692     0.1455E-2
  2.693     0.1466E-2
  2.694     0.1477E-2
  2.695     0.1489E-2
  2.696     0.1500E-2
  2.697     0.1512E-2
  2.698     0.1524E-2
  2.699     0.1536E-2
  2.700     0.1548E-2
  2.701     0.1560E-2
  2.702     0.1572E-2
  2.703     0.1585E-2
  2.704     0.1597E-2
  2.705     0.1610E-2
  2.706     0.1623E-2
  2.707     0.1636E-2
  2.708     0.1650E-2
  2.709     0.1663E-2
  2.710     0.1677E-2
  2.711     0.1691E-2
  2.712     0.1705E-2
  2.713     0.1719E-2
  2.714     0.1733E-2
  2.715     0.1748E-2
  2.716     0.1762E-2
  2.717     0.1777E-2
  2.718     0.1792E-2
  2.719     0.1808E-2
  2.720     0.1823E-2
  2.721     0.1839E-2
  2.722     0.1854E-2
  2.723     0.1871E-2
  2.724     0.1887E-2
  2.725     0.1903E-2
  2.726     0.1920E-2
  2.727     0.1937E-2
  2.728     0.1954E-2
  2.729     0.1971E-2
  2.730     0.1989E-2
  2.731     0.2007E-2
  2.732     0.2025E-2
  2.733     0.2043E-2
  2.734     0.2062E-2
  2.735     0.2081E-2
  2.736     0.2100E-2
  2.737     0.2119E-2
  2.738     0.2139E-2
  2.739     0.2159E-2
  2.740     0.2179E-2
  2.741     0.2199E-2
  2.742     0.2220E-2
  2.743     0.2241E-2
  2.744     0.2262E-2
  2.745     0.2284E-2
  2.746     0.2306E-2
  2.747     0.2328E-2
  2.748     0.2351E-2
  2.749     0.2374E-2
  2.750     0.2397E-2
  2.751     0.2421E-2
  2.752     0.2445E-2
  2.753     0.2469E-2
  2.754     0.2494E-2
  2.755     0.2519E-2
  2.756     0.2544E-2
  2.757     0.2570E-2
  2.758     0.2596E-2
  2.759     0.2623E-2
  2.760     0.2650E-2
  2.761     0.2677E-2
  2.762     0.2705E-2
  2.763     0.2734E-2
  2.764     0.2762E-2
    2.7653     0.0028
    2.7663     0.0028
    2.7673     0.0029
    2.7683     0.0029
    2.7693     0.0029
    2.7703     0.0029
    2.7713     0.0030
    2.7723     0.0030
    2.7733     0.0030
    2.7743     0.0031
    2.7753     0.0031
    2.7763     0.0031
    2.7773     0.0032
    2.7783     0.0032
    2.7793     0.0033
    2.7803     0.0033
    2.7813     0.0033
    2.7823     0.0034
    2.7833     0.0034
    2.7843     0.0034
    2.7853     0.0035
    2.7863     0.0035
    2.7873     0.0036
    2.7883     0.0036
    2.7893     0.0037
    2.7903     0.0037
    2.7913     0.0037
    2.7923     0.0038
    2.7933     0.0038
    2.7943     0.0039
    2.7953     0.0039
    2.7963     0.0040
    2.7973     0.0040
    2.7983     0.0041
    2.7993     0.0041
    2.8003     0.0042
    2.8013     0.0043
    2.8023     0.0043
    2.8033     0.0044
    2.8043     0.0044
    2.8053     0.0045
    2.8063     0.0045
    2.8073     0.0046
    2.8083     0.0047
    2.8093     0.0047
    2.8103     0.0048
    2.8113     0.0049
    2.8123     0.0049
    2.8133     0.0050
    2.8143     0.0051
    2.8153     0.0051
    2.8163     0.0052
    2.8173     0.0053
    2.8183     0.0054
    2.8193     0.0055
    2.8203     0.0055
    2.8213     0.0056
    2.8223     0.0057
    2.8233     0.0058
    2.8243     0.0059
    2.8253     0.0060
    2.8263     0.0061
    2.8273     0.0062
    2.8283     0.0063
    2.8293     0.0064
    2.8303     0.0065
    2.8313     0.0066
    2.8323     0.0067
    2.8333     0.0068
    2.8343     0.0069
    2.8353     0.0070
    2.8363     0.0071
    2.8373     0.0073
    2.8383     0.0074
    2.8393     0.0075
    2.8403     0.0076
    2.8413     0.0078
    2.8423     0.0079
    2.8433     0.0081
    2.8443     0.0082
    2.8453     0.0083
    2.8463     0.0085
    2.8473     0.0087
    2.8483     0.0088
    2.8493     0.0090
    2.8503     0.0092
    2.8513     0.0093
    2.8523     0.0095
    2.8533     0.0097
    2.8543     0.0099
   2.85534    0.01010
   2.85634    0.01031
   2.85734    0.01052
   2.85834    0.01073
   2.85934    0.01096
   2.86034    0.01119
   2.86134    0.01143
   2.86234    0.01168
   2.86334    0.01193
   2.86434    0.01220
   2.86534    0.01247
   2.86634    0.01275
   2.86734    0.01304
   2.86834    0.01334
   2.86934    0.01365
   2.87034    0.01397
   2.87134    0.01431
   2.87234    0.01465
   2.87334    0.01501
   2.87434    0.01538
   2.87534    0.01577
   2.87634    0.01617
   2.87734    0.01659
   2.87834    0.01702
   2.87934    0.01747
   2.88034    0.01793
   2.88134    0.01842
   2.88234    0.01893
   2.88334    0.01945
   2.88434    0.02000
   2.88534    0.02057
   2.88634    0.02117
   2.88734    0.02179
   2.88834    0.02244
   2.88934    0.02312
   2.89034    0.02383
   2.89134    0.02458
   2.89234    0.02536
   2.89334    0.02617
   2.89434    0.02703
   2.89534    0.02793
   2.89634    0.02887
   2.89734    0.02986
   2.89834    0.03090
   2.89934    0.03200
   2.90034    0.03316
   2.90134    0.03438
   2.90234    0.03566
   2.90334    0.03702
   2.90434    0.03846
   2.90534    0.03998
   2.90634    0.04160
   2.90734    0.04331
   2.90834    0.04513
   2.90934    0.04706
   2.91034    0.04912
   2.91134    0.05131
   2.91234    0.05365
   2.91334    0.05615
   2.91434    0.05882
   2.91534    0.06169
   2.91634    0.06477
   2.91734    0.06807
   2.91834    0.07163
   2.91934    0.07547
   2.92034    0.07962
   2.92134    0.08410
   2.92234    0.08897
   2.92334    0.09425
  2.924338   0.100000
  2.925338   0.106270
  2.926338   0.113123
  2.927338   0.120627
  2.928338   0.128865
  2.929338   0.137932
  2.930338   0.147929
  2.931338   0.158984
  2.932338   0.171233
  2.933338   0.184842
  2.934338   0.200001
  2.935338   0.216919
  2.936338   0.235851
  2.937338   0.257069
  2.938338   0.280897
  2.939338   0.307693
  2.940338   0.337836
  2.941338   0.371750
  2.942338   0.409836
  2.943338   0.452494
  2.944338   0.500001
  2.945338   0.552483
  2.946338   0.609760
  2.947338   0.671139
  2.948338   0.735300
  2.949338   0.800001
  2.950338   0.862065
  2.951338   0.917434
  2.952338   0.961537
  2.953338   0.990101
  2.954338   1.000000
  2.955338   0.990101
  2.956338   0.961537
  2.957338   0.917434
  2.958338   0.862065
  2.959338   0.800001
  2.960338   0.735287
  2.961338   0.671139
  2.962338   0.609760
  2.963338   0.552483
  2.964338   0.500001
  2.965338   0.452484
  2.966338   0.409836
  2.967338   0.371750
  2.968338   0.337836
  2.969338   0.307693
  2.970338   0.280897
  2.971338   0.257069
  2.972338   0.235851
  2.973338   0.216919
  2.974338   0.200001
  2.975338   0.184842
  2.976338   0.171233
  2.977338   0.158981
  2.978338   0.147929
  2.979338   0.137932
  2.980338   0.128865
  2.981338   0.120627
  2.982338   0.113121
  2.983338   0.106270
  2.984338   0.100000
   2.98534    0.09425
   2.98634    0.08897
   2.98734    0.08410
   2.98834    0.07962
   2.98934    0.07547
   2.99034    0.07163
   2.99134    0.06807
   2.99234    0.06477
   2.99334    0.06169
   2.99434    0.05882
   2.99534    0.05615
   2.99634    0.05365
   2.99734    0.05131
   2.99834    0.04912
   2.99934    0.04706
   3.00034    0.04513
   3.00134    0.04331
   3.00234    0.04160
   3.00334    0.03998
   3.00434    0.03846
   3.00534    0.03702
   3.00634    0.03566
   3.00734    0.03438
   3.00834    0.03316
   3.00934    0.03200
   3.01034    0.03090
   3.01134    0.02986
   3.01234    0.02887
   3.01334    0.02793
   3.01434    0.02703
   3.01534    0.02617
   3.01634    0.02535
   3.01734    0.02458
   3.01834    0.02383
   3.01934    0.02312
   3.02034    0.02244
   3.02134    0.02179
   3.02234    0.02117
   3.02334    0.02057
   3.02434    0.02000
   3.02534    0.01945
   3.02634    0.01893
   3.02734    0.01842
   3.02834    0.01793
   3.02934    0.01747
   3.03034    0.01702
   3.03134    0.01659
   3.03234    0.01617
   3.03334    0.01577
   3.03434    0.01538
   3.03534    0.01501
   3.03634    0.01465
   3.03734    0.01431
   3.03834    0.01397
   3.03934    0.01365
   3.04034    0.01334
   3.04134    0.01304
   3.04234    0.01275
   3.04334    0.01247
   3.04434    0.01220
   3.04534    0.01193
   3.04634    0.01168
   3.04734    0.01143
   3.04834    0.01119
   3.04934    0.01096
   3.05034    0.01073
   3.05134    0.01052
   3.05234    0.01031
   3.05334    0.01010
    3.0543     0.0099
    3.0553     0.0097
    3.0563     0.0095
    3.0573     0.0093
    3.0583     0.0092
    3.0593     0.0090
    3.0603     0.0088
    3.0613     0.0087
    3.0623     0.0085
    3.0633     0.0083
    3.0643     0.0082
    3.0653     0.0081
    3.0663     0.0079
    3.0673     0.0078
    3.0683     0.0076
    3.0693     0.0075
    3.0703     0.0074
    3.0713     0.0073
    3.0723     0.0071
    3.0733     0.0070
    3.0743     0.0069
    3.0753     0.0068
    3.0763     0.0067
    3.0773     0.0066
    3.0783     0.0065
    3.0793     0.0064
    3.0803     0.0063
    3.0813     0.0062
    3.0823     0.0061
    3.0833     0.0060
    3.0843     0.0059
    3.0853     0.0058
    3.0863     0.0057
    3.0873     0.0056
    3.0883     0.0055
    3.0893     0.0055
    3.0903     0.0054
    3.0913     0.0053
    3.0923     0.0052
    3.0933     0.0051
    3.0943     0.0051
    3.0953     0.0050
    3.0963     0.0049
    3.0973     0.0049
    3.0983     0.0048
    3.0993     0.0047
    3.1003     0.0047
    3.1013     0.0046
    3.1023     0.0045
    3.1033     0.0045
    3.1043     0.0044
    3.1053     0.0044
    3.1063     0.0043
    3.1073     0.0043
    3.1083     0.0042
    3.1093     0.0041
    3.1103     0.0041
    3.1113     0.0040
    3.1123     0.0040
    3.1133     0.0039
    3.1143     0.0039
    3.1153     0.0038
    3.1163     0.0038
    3.1173     0.0037
    3.1183     0.0037
    3.1193     0.0037
    3.1203     0.0036
    3.1213     0.0036
    3.1223     0.0035
    3.1233     0.0035
    3.1243     0.0034
    3.1253     0.0034
    3.1263     0.0034
    3.1273     0.0033
    3.1283     0.0033
    3.1293     0.0033
    3.1303     0.0032
    3.1313     0.0032
    3.1323     0.0031
  3.133     0.3111E-2
  3.134     0.3077E-2
  3.135     0.3043E-2
  3.136     0.3010E-2
  3.137     0.2977E-2
  3.138     0.2945E-2
  3.139     0.2913E-2
  3.140     0.2882E-2
  3.141     0.2852E-2
  3.142     0.2821E-2
  3.143     0.2792E-2
  3.144     0.2762E-2
  3.145     0.2734E-2
  3.146     0.2705E-2
  3.147     0.2677E-2
  3.148     0.2650E-2
  3.149     0.2623E-2
  3.150     0.2596E-2
  3.151     0.2570E-2
  3.152     0.2544E-2
  3.153     0.2519E-2
  3.154     0.2494E-2
  3.155     0.2469E-2
  3.156     0.2445E-2
  3.157     0.2421E-2
  3.158     0.2397E-2
  3.159     0.2374E-2
  3.160     0.2351E-2
  3.161     0.2328E-2
  3.162     0.2306E-2
  3.163     0.2284E-2
  3.164     0.2262E-2
  3.165     0.2241E-2
  3.166     0.2220E-2
  3.167     0.2199E-2
  3.168     0.2179E-2
  3.169     0.2159E-2
  3.170     0.2139E-2
  3.171     0.2119E-2
  3.172     0.2100E-2
  3.173     0.2081E-2
  3.174     0.2062E-2
  3.175     0.2043E-2
  3.176     0.2025E-2
  3.177     0.2007E-2
  3.178     0.1989E-2
  3.179     0.1971E-2
  3.180     0.1954E-2
  3.181     0.1937E-2
  3.182     0.1920E-2
  3.183     0.1903E-2
  3.184     0.1887E-2
  3.185     0.1871E-2
  3.186     0.1854E-2
  3.187     0.1839E-2
  3.188     0.1823E-2
  3.189     0.1808E-2
  3.190     0.1792E-2
  3.191     0.1777E-2
  3.192     0.1762E-2
  3.193     0.1748E-2
  3.194     0.1733E-2
  3.195     0.1719E-2
  3.196     0.1705E-2
  3.197     0.1691E-2
  3.198     0.1677E-2
  3.199     0.1663E-2
  3.200     0.1650E-2
  3.201     0.1636E-2
  3.202     0.1623E-2
  3.203     0.1610E-2
  3.204     0.1597E-2
  3.205     0.1585E-2
  3.206     0.1572E-2
  3.207     0.1560E-2
  3.208     0.1548E-2
  3.209     0.1536E-2
  3.210     0.1524E-2
  3.211     0.1512E-2
  3.212     0.1500E-2
  3.213     0.1489E-2
  3.214     0.1477E-2
  3.215     0.1466E-2
  3.216     0.1455E-2
  3.217     0.1444E-2
  3.218     0.1433E-2
  3.219     0.1422E-2
  3.220     0.1411E-2
  3.221     0.1401E-2
  3.222     0.1390E-2
  3.223     0.1380E-2
  3.224     0.1370E-2
  3.225     0.1360E-2
  3.226     0.1350E-2
  3.227     0.1340E-2
  3.228     0.1330E-2
  3.229     0.1321E-2
  3.230     0.1311E-2
  3.231     0.1302E-2
  3.232     0.1292E-2
  3.233     0.1283E-2
  3.234     0.1274E-2
  3.235     0.1265E-2
  3.236     0.1256E-2
  3.237     0.1247E-2
  3.238     0.1238E-2
  3.239     0.1230E-2
  3.240     0.1221E-2
  3.241     0.1213E-2
  3.242     0.1204E-2
  3.243     0.1196E-2
  3.244     0.1188E-2
  3.245     0.1180E-2
  3.246     0.1171E-2
  3.247     0.1163E-2
  3.248     0.1156E-2
  3.249     0.1148E-2
  3.250     0.1140E-2
  3.251     0.1132E-2
  3.252     0.1125E-2
  3.253     0.1117E-2
  3.254     0.1110E-2
  3.255     0.1103E-2
  3.256     0.1095E-2
  3.257     0.1088E-2
  3.258     0.1081E-2
  3.259     0.1074E-2
  3.260     0.1067E-2
  3.261     0.1060E-2
  3.262     0.1053E-2
  3.263     0.1046E-2
  3.264     0.1040E-2
  3.265     0.1033E-2
  3.266     0.1026E-2
  3.267     0.1020E-2
  3.268     0.1013E-2
  3.269     0.1007E-2
  3.270     0.1000E-2
  3.271     0.9941E-3
  3.272     0.9879E-3
  3.273     0.9817E-3
  3.274     0.9756E-3
  3.275     0.9695E-3
  3.276     0.9635E-3
  3.277     0.9576E-3
  3.278     0.9517E-3
  3.279     0.9459E-3
  3.280     0.9401E-3
  3.281     0.9343E-3
  3.282     0.9286E-3
  3.283     0.9230E-3
  3.284     0.9174E-3
  3.285     0.9119E-3
  3.286     0.9064E-3
  3.287     0.9010E-3
  3.288     0.8956E-3
  3.289     0.8903E-3
  3.290     0.8850E-3
  3.291     0.8797E-3
  3.292     0.8746E-3
  3.293     0.8694E-3
  3.294     0.8643E-3
  3.295     0.8592E-3
  3.296     0.8542E-3
  3.297     0.8493E-3
  3.298     0.8443E-3
  3.299     0.8395E-3
  3.300     0.8346E-3
  3.301     0.8298E-3
  3.302     0.8251E-3
  3.303     0.8203E-3
  3.304     0.8157E-3
  3.305     0.8110E-3
  3.306     0.8064E-3
  3.307     0.8019E-3
  3.308     0.7973E-3
  3.309     0.7929E-3
  3.310     0.7884E-3
  3.311     0.7840E-3
  3.312     0.7796E-3
  3.313     0.7753E-3
  3.314     0.7710E-3
  3.315     0.7667E-3
  3.316     0.7625E-3
  3.317     0.7583E-3
  3.318     0.7542E-3
  3.319     0.7500E-3
  3.320     0.7460E-3
  3.321     0.7419E-3
  3.322     0.7379E-3
  3.323     0.7339E-3
  3.324     0.7299E-3
  3.325     0.7260E-3
  3.326     0.7221E-3
  3.327     0.7182E-3
  3.328     0.7144E-3
  3.329     0.7106E-3
  3.330     0.7068E-3
  3.331     0.7031E-3
  3.332     0.6994E-3
  3.333     0.6957E-3
  3.334     0.6920E-3
  3.335     0.6884E-3
  3.336     0.6848E-3
  3.337     0.6812E-3
  3.338     0.6777E-3
  3.339     0.6742E-3
  3.340     0.6707E-3
  3.341     0.6672E-3
  3.342     0.6638E-3
  3.343     0.6604E-3
  3.344     0.6570E-3
  3.345     0.6537E-3
  3.346     0.6503E-3
  3.347     0.6470E-3
  3.348     0.6438E-3
  3.349     0.6405E-3
  3.350     0.6373E-3
  3.351     0.6341E-3
  3.352     0.6309E-3
  3.353     0.6277E-3
  3.354     0.6246E-3
  3.355     0.6215E-3
  3.356     0.6184E-3
  3.357     0.6154E-3
  3.358     0.6123E-3
  3.359     0.6093E-3
  3.360     0.6063E-3
  3.361     0.6033E-3
  3.362     0.6004E-3
  3.363     0.5974E-3
  3.364     0.5945E-3
  3.365     0.5916E-3
  3.366     0.5888E-3
  3.367     0.5859E-3
  3.368     0.5831E-3
  3.369     0.5803E-3
  3.370     0.5775E-3
  3.371     0.5747E-3
  3.372     0.5720E-3
  3.373     0.5693E-3
  3.374     0.5666E-3
  3.375     0.5639E-3
  3.376     0.5612E-3
  3.377     0.5586E-3
  3.378     0.5559E-3
  3.379     0.5533E-3
  3.380     0.5507E-3
  3.381     0.5482E-3
  3.382     0.5456E-3
  3.383     0.5431E-3
  3.384     0.5405E-3
  3.385     0.5380E-3
  3.386     0.5355E-3
  3.387     0.5331E-3
  3.388     0.5306E-3
  3.389     0.5282E-3
  3.390     0.5258E-3
  3.391     0.5234E-3
  3.392     0.5210E-3
  3.393     0.5186E-3
  3.394     0.5163E-3
  3.395     0.5139E-3
  3.396     0.5116E-3
  3.397     0.5093E-3
  3.398     0.5070E-3
  3.399     0.5047E-3
  3.400     0.5025E-3
  3.401     0.5002E-3
  3.402     0.4980E-3
  3.403     0.4958E-3
  3.404     0.4936E-3
  3.405     0.4914E-3
  3.406     0.4892E-3
  3.407     0.4871E-3
  3.408     0.4849E-3
  3.409     0.4828E-3
  3.410     0.4807E-3
  3.411     0.4786E-3
  3.412     0.4765E-3
  3.413     0.4744E-3
  3.414     0.4724E-3
  3.415     0.4703E-3
  3.416     0.4683E-3
  3.417     0.4663E-3
  3.418     0.4643E-3
  3.419     0.4623E-3
  3.420     0.4603E-3
  3.421     0.4583E-3
  3.422     0.4564E-3
  3.423     0.4544E-3
  3.424     0.4525E-3
  3.425     0.4506E-3
  3.426     0.4487E-3
  3.427     0.4468E-3
  3.428     0.4449E-3
  3.429     0.4430E-3
  3.430     0.4412E-3
  3.431     0.4393E-3
  3.432     0.4375E-3
  3.433     0.4357E-3
  3.434     0.4338E-3
  3.435     0.4320E-3
  3.436     0.4302E-3
  3.437     0.4285E-3
  3.438     0.4267E-3
  3.439     0.4249E-3
  3.440     0.4232E-3
  3.441     0.4215E-3
  3.442     0.4197E-3
  3.443     0.4180E-3
  3.444     0.4163E-3
  3.445     0.4146E-3
  3.446     0.4129E-3
  3.447     0.4113E-3
  3.448     0.4096E-3
  3.449     0.4080E-3
  3.450     0.4063E-3
  3.451     0.4047E-3
  3.452     0.4031E-3
  3.453     0.4014E-3
# 
# 06/20/2019 at 00:18 YPP @ br018.pvt.bridges.psc.edu [start]
# 06/20/2019 at 00:19                                 [end]
#  
# Timing   [Min/Max/Average]: 02s/02s/02s
#
# .-Input file : amp.in
# | excitons                     # [R] Excitons
# | amplitude                    # [R] Amplitude
# | BoseTemp=  0.02585     eV    # Bosonic Temperature
# | States= "1 - 20"             # Index of the BS state(s)
# | #DipWeight                   #  Weight the contribution to the exciton WFs with the dipoles
# | Degen_Step=0.1000E-4   eV    # Maximum energy separation of two degenerate states
