#                                                           
#   __   __     _        __  __       ____      U  ___  u   
#   \ \ / / U  /"\  U u |" \/ "| u U | __") u    \/"_ \/    
#    \ V /   \/ _ \/   \| |\/| |/   \|  _ \/     | | | |    
#   U_|"|_u  / ___ \    | |  | |     | |_) | .-,_| |_| |    
#     |_|   /_/   \_\   |_|  |_|     |____/   \_)-\___/     
# .-,//|(_   \\    >>  <<,-,,-.     _|| \\_        \\       
#  \_) (__) (__)  (__)  (./  \.)   (__) (__)      (__)      
#                                                           
#                                                           
#              GPL Version 4.1.4 Revision 76                
#                        MPI Build                          
#                http://www.yambo-code.org                  
#
# BSK|Identifier              :9599
#    |Dimension               :5098
#    |Bands                   :524 - 624
#    |Exchange           [res]: yes
#    |Correlation        [res]: no
#    |Kernel`s coupling       : no
#    |Exchange           [cpl]: no
#    |Correlation        [cpl]: no
#    |W interaction is bare   : no
#    |ALDA kernel in R-space  : no
#    |RL vectors    [exchange]:55207
#    |E/h energy range    [ev]:-1.000000 - -1.000000
#    |Coupling range     [o/o]: 100.0000 -  100.0000
#
# Electron-Hole pairs that contributes to Excitonic State 17 more than 5%
#
#  E    [eV]  Amplitude
#  
  2.458     0.4102E-3
  2.459     0.4118E-3
  2.460     0.4134E-3
  2.461     0.4150E-3
  2.462     0.4166E-3
  2.463     0.4183E-3
  2.464     0.4199E-3
  2.465     0.4216E-3
  2.466     0.4232E-3
  2.467     0.4249E-3
  2.468     0.4266E-3
  2.469     0.4283E-3
  2.470     0.4300E-3
  2.472     0.4317E-3
  2.473     0.4335E-3
  2.474     0.4352E-3
  2.475     0.4370E-3
  2.476     0.4387E-3
  2.477     0.4405E-3
  2.478     0.4423E-3
  2.479     0.4441E-3
  2.480     0.4459E-3
  2.481     0.4477E-3
  2.482     0.4495E-3
  2.483     0.4514E-3
  2.484     0.4532E-3
  2.485     0.4551E-3
  2.486     0.4570E-3
  2.487     0.4588E-3
  2.488     0.4607E-3
  2.489     0.4626E-3
  2.490     0.4646E-3
  2.491     0.4665E-3
  2.492     0.4684E-3
  2.493     0.4704E-3
  2.495     0.4724E-3
  2.496     0.4743E-3
  2.497     0.4763E-3
  2.498     0.4783E-3
  2.499     0.4804E-3
  2.500     0.4824E-3
  2.501     0.4844E-3
  2.502     0.4865E-3
  2.503     0.4886E-3
  2.504     0.4907E-3
  2.505     0.4928E-3
  2.506     0.4949E-3
  2.507     0.4970E-3
  2.508     0.4991E-3
  2.509     0.5013E-3
  2.510     0.5034E-3
  2.511     0.5056E-3
  2.512     0.5078E-3
  2.513     0.5100E-3
  2.514     0.5123E-3
  2.515     0.5145E-3
  2.516     0.5167E-3
  2.518     0.5190E-3
  2.519     0.5213E-3
  2.520     0.5236E-3
  2.521     0.5259E-3
  2.522     0.5282E-3
  2.523     0.5306E-3
  2.524     0.5329E-3
  2.525     0.5353E-3
  2.526     0.5377E-3
  2.527     0.5401E-3
  2.528     0.5425E-3
  2.529     0.5450E-3
  2.530     0.5474E-3
  2.531     0.5499E-3
  2.532     0.5524E-3
  2.533     0.5549E-3
  2.534     0.5574E-3
  2.535     0.5600E-3
  2.536     0.5625E-3
  2.537     0.5651E-3
  2.538     0.5677E-3
  2.540     0.5703E-3
  2.541     0.5729E-3
  2.542     0.5756E-3
  2.543     0.5782E-3
  2.544     0.5809E-3
  2.545     0.5836E-3
  2.546     0.5863E-3
  2.547     0.5891E-3
  2.548     0.5918E-3
  2.549     0.5946E-3
  2.550     0.5974E-3
  2.551     0.6002E-3
  2.552     0.6031E-3
  2.553     0.6059E-3
  2.554     0.6088E-3
  2.555     0.6117E-3
  2.556     0.6146E-3
  2.557     0.6176E-3
  2.558     0.6205E-3
  2.559     0.6235E-3
  2.560     0.6265E-3
  2.561     0.6296E-3
  2.563     0.6326E-3
  2.564     0.6357E-3
  2.565     0.6388E-3
  2.566     0.6419E-3
  2.567     0.6450E-3
  2.568     0.6482E-3
  2.569     0.6514E-3
  2.570     0.6546E-3
  2.571     0.6578E-3
  2.572     0.6611E-3
  2.573     0.6644E-3
  2.574     0.6677E-3
  2.575     0.6710E-3
  2.576     0.6744E-3
  2.577     0.6777E-3
  2.578     0.6812E-3
  2.579     0.6846E-3
  2.580     0.6880E-3
  2.581     0.6915E-3
  2.582     0.6950E-3
  2.583     0.6986E-3
  2.584     0.7021E-3
  2.586     0.7057E-3
  2.587     0.7094E-3
  2.588     0.7130E-3
  2.589     0.7167E-3
  2.590     0.7204E-3
  2.591     0.7241E-3
  2.592     0.7279E-3
  2.593     0.7317E-3
  2.594     0.7355E-3
  2.595     0.7394E-3
  2.596     0.7432E-3
  2.597     0.7472E-3
  2.598     0.7511E-3
  2.599     0.7551E-3
  2.600     0.7591E-3
  2.601     0.7631E-3
  2.602     0.7672E-3
  2.603     0.7713E-3
  2.604     0.7754E-3
  2.605     0.7796E-3
  2.606     0.7838E-3
  2.608     0.7880E-3
  2.609     0.7923E-3
  2.610     0.7966E-3
  2.611     0.8010E-3
  2.612     0.8054E-3
  2.613     0.8098E-3
  2.614     0.8142E-3
  2.615     0.8187E-3
  2.616     0.8232E-3
  2.617     0.8278E-3
  2.618     0.8324E-3
  2.619     0.8370E-3
  2.620     0.8417E-3
  2.621     0.8464E-3
  2.622     0.8512E-3
  2.623     0.8560E-3
  2.624     0.8608E-3
  2.625     0.8657E-3
  2.626     0.8706E-3
  2.627     0.8756E-3
  2.628     0.8806E-3
  2.629     0.8856E-3
  2.631     0.8907E-3
  2.632     0.8959E-3
  2.633     0.9011E-3
  2.634     0.9063E-3
  2.635     0.9116E-3
  2.636     0.9169E-3
  2.637     0.9222E-3
  2.638     0.9277E-3
  2.639     0.9331E-3
  2.640     0.9386E-3
  2.641     0.9442E-3
  2.642     0.9498E-3
  2.643     0.9554E-3
  2.644     0.9611E-3
  2.645     0.9669E-3
  2.646     0.9727E-3
  2.647     0.9786E-3
  2.648     0.9845E-3
  2.649     0.9905E-3
  2.650     0.9965E-3
  2.651     0.1003E-2
  2.652     0.1009E-2
  2.654     0.1015E-2
  2.655     0.1021E-2
  2.656     0.1027E-2
  2.657     0.1034E-2
  2.658     0.1040E-2
  2.659     0.1047E-2
  2.660     0.1053E-2
  2.661     0.1060E-2
  2.662     0.1067E-2
  2.663     0.1073E-2
  2.664     0.1080E-2
  2.665     0.1087E-2
  2.666     0.1094E-2
  2.667     0.1101E-2
  2.668     0.1108E-2
  2.669     0.1115E-2
  2.670     0.1122E-2
  2.671     0.1130E-2
  2.672     0.1137E-2
  2.673     0.1144E-2
  2.674     0.1152E-2
  2.675     0.1159E-2
  2.677     0.1167E-2
  2.678     0.1175E-2
  2.679     0.1182E-2
  2.680     0.1190E-2
  2.681     0.1198E-2
  2.682     0.1206E-2
  2.683     0.1214E-2
  2.684     0.1223E-2
  2.685     0.1231E-2
  2.686     0.1239E-2
  2.687     0.1248E-2
  2.688     0.1256E-2
  2.689     0.1265E-2
  2.690     0.1273E-2
  2.691     0.1282E-2
  2.692     0.1291E-2
  2.693     0.1300E-2
  2.694     0.1309E-2
  2.695     0.1318E-2
  2.696     0.1328E-2
  2.697     0.1337E-2
  2.699     0.1346E-2
  2.700     0.1356E-2
  2.701     0.1366E-2
  2.702     0.1375E-2
  2.703     0.1385E-2
  2.704     0.1395E-2
  2.705     0.1405E-2
  2.706     0.1415E-2
  2.707     0.1426E-2
  2.708     0.1436E-2
  2.709     0.1447E-2
  2.710     0.1457E-2
  2.711     0.1468E-2
  2.712     0.1479E-2
  2.713     0.1490E-2
  2.714     0.1501E-2
  2.715     0.1512E-2
  2.716     0.1524E-2
  2.717     0.1535E-2
  2.718     0.1547E-2
  2.719     0.1559E-2
  2.720     0.1571E-2
  2.722     0.1583E-2
  2.723     0.1595E-2
  2.724     0.1607E-2
  2.725     0.1620E-2
  2.726     0.1632E-2
  2.727     0.1645E-2
  2.728     0.1658E-2
  2.729     0.1671E-2
  2.730     0.1684E-2
  2.731     0.1698E-2
  2.732     0.1711E-2
  2.733     0.1725E-2
  2.734     0.1739E-2
  2.735     0.1753E-2
  2.736     0.1767E-2
  2.737     0.1781E-2
  2.738     0.1796E-2
  2.739     0.1811E-2
  2.740     0.1826E-2
  2.741     0.1841E-2
  2.742     0.1856E-2
  2.743     0.1871E-2
  2.745     0.1887E-2
  2.746     0.1903E-2
  2.747     0.1919E-2
  2.748     0.1935E-2
  2.749     0.1952E-2
  2.750     0.1968E-2
  2.751     0.1985E-2
  2.752     0.2003E-2
  2.753     0.2020E-2
  2.754     0.2037E-2
  2.755     0.2055E-2
  2.756     0.2073E-2
  2.757     0.2092E-2
  2.758     0.2110E-2
  2.759     0.2129E-2
  2.760     0.2148E-2
  2.761     0.2167E-2
  2.762     0.2187E-2
  2.763     0.2207E-2
  2.764     0.2227E-2
  2.765     0.2247E-2
  2.767     0.2268E-2
  2.768     0.2289E-2
  2.769     0.2310E-2
  2.770     0.2331E-2
  2.771     0.2353E-2
  2.772     0.2375E-2
  2.773     0.2398E-2
  2.774     0.2421E-2
  2.775     0.2444E-2
  2.776     0.2467E-2
  2.777     0.2491E-2
  2.778     0.2515E-2
  2.779     0.2539E-2
  2.780     0.2564E-2
  2.781     0.2589E-2
  2.782     0.2615E-2
  2.783     0.2641E-2
  2.784     0.2667E-2
  2.785     0.2694E-2
  2.786     0.2721E-2
  2.787     0.2748E-2
  2.788     0.2776E-2
    2.7895     0.0028
    2.7906     0.0028
    2.7916     0.0029
    2.7927     0.0029
    2.7937     0.0029
    2.7947     0.0030
    2.7958     0.0030
    2.7968     0.0030
    2.7979     0.0030
    2.7989     0.0031
    2.8000     0.0031
    2.8010     0.0031
    2.8021     0.0032
    2.8031     0.0032
    2.8042     0.0033
    2.8052     0.0033
    2.8063     0.0033
    2.8073     0.0034
    2.8083     0.0034
    2.8094     0.0034
    2.8104     0.0035
    2.8115     0.0035
    2.8125     0.0036
    2.8136     0.0036
    2.8146     0.0036
    2.8157     0.0037
    2.8167     0.0037
    2.8178     0.0038
    2.8188     0.0038
    2.8199     0.0039
    2.8209     0.0039
    2.8219     0.0040
    2.8230     0.0040
    2.8240     0.0041
    2.8251     0.0041
    2.8261     0.0042
    2.8272     0.0042
    2.8282     0.0043
    2.8293     0.0043
    2.8303     0.0044
    2.8314     0.0044
    2.8324     0.0045
    2.8334     0.0045
    2.8345     0.0046
    2.8355     0.0047
    2.8366     0.0047
    2.8376     0.0048
    2.8387     0.0049
    2.8397     0.0049
    2.8408     0.0050
    2.8418     0.0051
    2.8429     0.0051
    2.8439     0.0052
    2.8450     0.0053
    2.8460     0.0053
    2.8470     0.0054
    2.8481     0.0055
    2.8491     0.0056
    2.8502     0.0057
    2.8512     0.0057
    2.8523     0.0058
    2.8533     0.0059
    2.8544     0.0060
    2.8554     0.0061
    2.8565     0.0062
    2.8575     0.0063
    2.8586     0.0064
    2.8596     0.0065
    2.8606     0.0066
    2.8617     0.0067
    2.8627     0.0068
    2.8638     0.0069
    2.8648     0.0070
    2.8659     0.0071
    2.8669     0.0072
    2.8680     0.0074
    2.8690     0.0075
    2.8701     0.0076
    2.8711     0.0077
    2.8722     0.0079
    2.8732     0.0080
    2.8742     0.0081
    2.8753     0.0083
    2.8763     0.0084
    2.8774     0.0086
    2.8784     0.0087
    2.8795     0.0089
    2.8805     0.0091
    2.8816     0.0092
    2.8826     0.0094
    2.8837     0.0096
    2.8847     0.0098
    2.8858     0.0100
   2.88680    0.01017
   2.88784    0.01037
   2.88889    0.01058
   2.88994    0.01079
   2.89098    0.01101
   2.89203    0.01124
   2.89307    0.01147
   2.89412    0.01172
   2.89517    0.01197
   2.89621    0.01222
   2.89726    0.01249
   2.89830    0.01277
   2.89935    0.01305
   2.90040    0.01335
   2.90144    0.01365
   2.90249    0.01397
   2.90353    0.01429
   2.90458    0.01463
   2.90563    0.01499
   2.90667    0.01535
   2.90772    0.01573
   2.90876    0.01612
   2.90981    0.01653
   2.91086    0.01695
   2.91190    0.01739
   2.91295    0.01785
   2.91400    0.01833
   2.91504    0.01882
   2.91609    0.01934
   2.91713    0.01988
   2.91818    0.02045
   2.91923    0.02104
   2.92027    0.02165
   2.92132    0.02230
   2.92236    0.02297
   2.92341    0.02368
   2.92446    0.02442
   2.92550    0.02520
   2.92655    0.02602
   2.92759    0.02689
   2.92864    0.02780
   2.92969    0.02876
   2.93073    0.02977
   2.93178    0.03084
   2.93282    0.03197
   2.93387    0.03318
   2.93492    0.03446
   2.93596    0.03582
   2.93701    0.03727
   2.93805    0.03881
   2.93910    0.04047
   2.94015    0.04225
   2.94119    0.04415
   2.94224    0.04620
   2.94328    0.04841
   2.94433    0.05080
   2.94538    0.05337
   2.94642    0.05616
   2.94747    0.05916
   2.94851    0.06240
   2.94956    0.06589
   2.95061    0.06961
   2.95165    0.07355
   2.95270    0.07768
   2.95374    0.08193
   2.95479    0.08624
   2.95584    0.09053
   2.95688    0.09472
   2.95793    0.09877
  2.958975   0.102671
  2.960021   0.106494
  2.961067   0.110341
  2.962113   0.114349
  2.963159   0.118664
  2.964205   0.123432
  2.965251   0.128782
  2.966297   0.134833
  2.967343   0.141691
  2.968389   0.149465
  2.969435   0.158257
  2.970481   0.168188
  2.971528   0.179385
  2.972574   0.191995
  2.973619   0.206191
  2.974666   0.222175
  2.975712   0.240174
  2.976758   0.260447
  2.977804   0.283302
  2.978850   0.309067
  2.979896   0.338121
  2.980942   0.370848
  2.981988   0.407662
  2.983034   0.448926
  2.984080   0.494950
  2.985126   0.545854
  2.986172   0.601508
  2.987218   0.661308
  2.988264   0.724067
  2.989310   0.787751
  2.990356   0.849478
  2.991402   0.905510
  2.992448   0.951712
  2.993494   0.984151
  2.994540   1.000000
  2.995586   0.998201
  2.996633   0.979750
  2.997679   0.947370
  2.998724   0.904728
  2.999770   0.855610
  3.000817   0.803203
  3.001863   0.749847
  3.002909   0.696978
  3.003955   0.645430
  3.005001   0.595636
  3.006047   0.547938
  3.007093   0.502624
  3.008139   0.460014
  3.009185   0.420348
  3.010231   0.383797
  3.011277   0.350419
  3.012323   0.320147
  3.013369   0.292829
  3.014415   0.268270
  3.015461   0.246239
  3.016507   0.226485
  3.017553   0.208777
  3.018599   0.192887
  3.019645   0.178606
  3.020692   0.165751
  3.021738   0.154159
  3.022784   0.143680
  3.023829   0.134188
  3.024876   0.125569
  3.025922   0.117726
  3.026968   0.110572
  3.028014   0.104033
   3.02906    0.09804
   3.03011    0.09254
   3.03115    0.08748
   3.03220    0.08282
   3.03324    0.07851
   3.03429    0.07452
   3.03534    0.07083
   3.03638    0.06740
   3.03743    0.06420
   3.03847    0.06123
   3.03952    0.05846
   3.04057    0.05587
   3.04161    0.05344
   3.04266    0.05117
   3.04370    0.04904
   3.04475    0.04704
   3.04580    0.04516
   3.04684    0.04338
   3.04789    0.04171
   3.04893    0.04013
   3.04998    0.03864
   3.05103    0.03723
   3.05207    0.03590
   3.05312    0.03464
   3.05416    0.03344
   3.05521    0.03230
   3.05626    0.03122
   3.05730    0.03019
   3.05835    0.02921
   3.05940    0.02828
   3.06044    0.02739
   3.06149    0.02654
   3.06253    0.02574
   3.06358    0.02496
   3.06463    0.02423
   3.06567    0.02352
   3.06672    0.02284
   3.06776    0.02220
   3.06881    0.02158
   3.06986    0.02098
   3.07090    0.02041
   3.07195    0.01986
   3.07299    0.01934
   3.07404    0.01883
   3.07509    0.01835
   3.07613    0.01788
   3.07718    0.01743
   3.07822    0.01700
   3.07927    0.01658
   3.08032    0.01618
   3.08136    0.01579
   3.08241    0.01542
   3.08345    0.01506
   3.08450    0.01471
   3.08555    0.01437
   3.08659    0.01405
   3.08764    0.01373
   3.08868    0.01343
   3.08973    0.01313
   3.09078    0.01285
   3.09182    0.01257
   3.09287    0.01231
   3.09391    0.01205
   3.09496    0.01180
   3.09601    0.01156
   3.09705    0.01132
   3.09810    0.01110
   3.09914    0.01087
   3.10019    0.01066
   3.10124    0.01045
   3.10228    0.01025
   3.10333    0.01005
    3.1044     0.0099
    3.1054     0.0097
    3.1065     0.0095
    3.1075     0.0093
    3.1086     0.0092
    3.1096     0.0090
    3.1107     0.0088
    3.1117     0.0087
    3.1127     0.0085
    3.1138     0.0084
    3.1148     0.0082
    3.1159     0.0081
    3.1169     0.0079
    3.1180     0.0078
    3.1190     0.0077
    3.1201     0.0075
    3.1211     0.0074
    3.1222     0.0073
    3.1232     0.0072
    3.1242     0.0071
    3.1253     0.0070
    3.1263     0.0068
    3.1274     0.0067
    3.1284     0.0066
    3.1295     0.0065
    3.1305     0.0064
    3.1316     0.0063
    3.1326     0.0062
    3.1337     0.0061
    3.1347     0.0061
    3.1358     0.0060
    3.1368     0.0059
    3.1378     0.0058
    3.1389     0.0057
    3.1399     0.0056
    3.1410     0.0055
    3.1420     0.0055
    3.1431     0.0054
    3.1441     0.0053
    3.1452     0.0052
    3.1462     0.0052
    3.1473     0.0051
    3.1483     0.0050
    3.1494     0.0050
    3.1504     0.0049
    3.1514     0.0048
    3.1525     0.0048
    3.1535     0.0047
    3.1546     0.0046
    3.1556     0.0046
    3.1567     0.0045
    3.1577     0.0045
    3.1588     0.0044
    3.1598     0.0043
    3.1609     0.0043
    3.1619     0.0042
    3.1630     0.0042
    3.1640     0.0041
    3.1650     0.0041
    3.1661     0.0040
    3.1671     0.0040
    3.1682     0.0039
    3.1692     0.0039
    3.1703     0.0038
    3.1713     0.0038
    3.1724     0.0038
    3.1734     0.0037
    3.1745     0.0037
    3.1755     0.0036
    3.1766     0.0036
    3.1776     0.0035
    3.1786     0.0035
    3.1797     0.0035
    3.1807     0.0034
    3.1818     0.0034
    3.1828     0.0033
    3.1839     0.0033
    3.1849     0.0033
    3.1860     0.0032
    3.1870     0.0032
  3.188     0.3171E-2
  3.189     0.3137E-2
  3.190     0.3103E-2
  3.191     0.3070E-2
  3.192     0.3038E-2
  3.193     0.3006E-2
  3.194     0.2974E-2
  3.195     0.2943E-2
  3.196     0.2913E-2
  3.197     0.2883E-2
  3.199     0.2853E-2
  3.200     0.2824E-2
  3.201     0.2796E-2
  3.202     0.2767E-2
  3.203     0.2740E-2
  3.204     0.2712E-2
  3.205     0.2685E-2
  3.206     0.2659E-2
  3.207     0.2633E-2
  3.208     0.2607E-2
  3.209     0.2581E-2
  3.210     0.2556E-2
  3.211     0.2532E-2
  3.212     0.2507E-2
  3.213     0.2483E-2
  3.214     0.2460E-2
  3.215     0.2436E-2
  3.216     0.2413E-2
  3.217     0.2391E-2
  3.218     0.2369E-2
  3.219     0.2346E-2
  3.220     0.2325E-2
  3.222     0.2303E-2
  3.223     0.2282E-2
  3.224     0.2261E-2
  3.225     0.2241E-2
  3.226     0.2221E-2
  3.227     0.2201E-2
  3.228     0.2181E-2
  3.229     0.2161E-2
  3.230     0.2142E-2
  3.231     0.2123E-2
  3.232     0.2105E-2
  3.233     0.2086E-2
  3.234     0.2068E-2
  3.235     0.2050E-2
  3.236     0.2032E-2
  3.237     0.2015E-2
  3.238     0.1997E-2
  3.239     0.1980E-2
  3.240     0.1964E-2
  3.241     0.1947E-2
  3.242     0.1931E-2
  3.243     0.1914E-2
  3.245     0.1898E-2
  3.246     0.1882E-2
  3.247     0.1867E-2
  3.248     0.1851E-2
  3.249     0.1836E-2
  3.250     0.1821E-2
  3.251     0.1806E-2
  3.252     0.1792E-2
  3.253     0.1777E-2
  3.254     0.1763E-2
  3.255     0.1749E-2
  3.256     0.1735E-2
  3.257     0.1721E-2
  3.258     0.1707E-2
  3.259     0.1694E-2
  3.260     0.1680E-2
  3.261     0.1667E-2
  3.262     0.1654E-2
  3.263     0.1641E-2
  3.264     0.1629E-2
  3.265     0.1616E-2
  3.267     0.1604E-2
  3.268     0.1591E-2
  3.269     0.1579E-2
  3.270     0.1567E-2
  3.271     0.1555E-2
  3.272     0.1544E-2
  3.273     0.1532E-2
  3.274     0.1521E-2
  3.275     0.1509E-2
  3.276     0.1498E-2
  3.277     0.1487E-2
  3.278     0.1476E-2
  3.279     0.1465E-2
  3.280     0.1454E-2
  3.281     0.1444E-2
  3.282     0.1433E-2
  3.283     0.1423E-2
  3.284     0.1413E-2
  3.285     0.1402E-2
  3.286     0.1392E-2
  3.287     0.1382E-2
  3.288     0.1373E-2
  3.290     0.1363E-2
  3.291     0.1353E-2
  3.292     0.1344E-2
  3.293     0.1334E-2
  3.294     0.1325E-2
  3.295     0.1316E-2
  3.296     0.1307E-2
  3.297     0.1298E-2
  3.298     0.1289E-2
  3.299     0.1280E-2
  3.300     0.1271E-2
  3.301     0.1262E-2
  3.302     0.1254E-2
  3.303     0.1245E-2
  3.304     0.1237E-2
  3.305     0.1229E-2
  3.306     0.1220E-2
  3.307     0.1212E-2
  3.308     0.1204E-2
  3.309     0.1196E-2
  3.310     0.1188E-2
  3.311     0.1180E-2
  3.313     0.1173E-2
  3.314     0.1165E-2
  3.315     0.1157E-2
  3.316     0.1150E-2
  3.317     0.1142E-2
  3.318     0.1135E-2
  3.319     0.1128E-2
  3.320     0.1120E-2
  3.321     0.1113E-2
  3.322     0.1106E-2
  3.323     0.1099E-2
  3.324     0.1092E-2
  3.325     0.1085E-2
  3.326     0.1078E-2
  3.327     0.1071E-2
  3.328     0.1065E-2
  3.329     0.1058E-2
  3.330     0.1052E-2
  3.331     0.1045E-2
  3.332     0.1039E-2
  3.333     0.1032E-2
  3.335     0.1026E-2
  3.336     0.1019E-2
  3.337     0.1013E-2
  3.338     0.1007E-2
  3.339     0.1001E-2
  3.340     0.9949E-3
  3.341     0.9889E-3
  3.342     0.9829E-3
  3.343     0.9770E-3
  3.344     0.9712E-3
  3.345     0.9654E-3
  3.346     0.9596E-3
  3.347     0.9540E-3
  3.348     0.9483E-3
  3.349     0.9427E-3
  3.350     0.9372E-3
  3.351     0.9317E-3
  3.352     0.9262E-3
  3.353     0.9208E-3
  3.354     0.9155E-3
  3.355     0.9102E-3
  3.356     0.9049E-3
  3.358     0.8997E-3
  3.359     0.8945E-3
  3.360     0.8894E-3
  3.361     0.8843E-3
  3.362     0.8793E-3
  3.363     0.8743E-3
  3.364     0.8694E-3
  3.365     0.8644E-3
  3.366     0.8596E-3
  3.367     0.8547E-3
  3.368     0.8500E-3
  3.369     0.8452E-3
  3.370     0.8405E-3
  3.371     0.8358E-3
  3.372     0.8312E-3
  3.373     0.8266E-3
  3.374     0.8221E-3
  3.375     0.8176E-3
  3.376     0.8131E-3
  3.377     0.8086E-3
  3.378     0.8042E-3
  3.379     0.7999E-3
  3.381     0.7955E-3
  3.382     0.7912E-3
  3.383     0.7870E-3
  3.384     0.7827E-3
  3.385     0.7785E-3
  3.386     0.7744E-3
  3.387     0.7702E-3
  3.388     0.7662E-3
  3.389     0.7621E-3
  3.390     0.7581E-3
  3.391     0.7541E-3
  3.392     0.7501E-3
  3.393     0.7462E-3
  3.394     0.7422E-3
  3.395     0.7384E-3
  3.396     0.7345E-3
  3.397     0.7307E-3
  3.398     0.7269E-3
  3.399     0.7232E-3
  3.400     0.7194E-3
  3.401     0.7158E-3
  3.402     0.7121E-3
  3.404     0.7084E-3
  3.405     0.7048E-3
  3.406     0.7012E-3
  3.407     0.6977E-3
  3.408     0.6942E-3
  3.409     0.6906E-3
  3.410     0.6872E-3
  3.411     0.6837E-3
  3.412     0.6803E-3
  3.413     0.6769E-3
  3.414     0.6735E-3
  3.415     0.6702E-3
  3.416     0.6668E-3
  3.417     0.6635E-3
  3.418     0.6603E-3
  3.419     0.6570E-3
  3.420     0.6538E-3
  3.421     0.6506E-3
  3.422     0.6474E-3
  3.423     0.6442E-3
  3.424     0.6411E-3
  3.426     0.6380E-3
  3.427     0.6349E-3
  3.428     0.6318E-3
  3.429     0.6288E-3
  3.430     0.6258E-3
  3.431     0.6228E-3
  3.432     0.6198E-3
  3.433     0.6168E-3
  3.434     0.6139E-3
  3.435     0.6110E-3
  3.436     0.6081E-3
  3.437     0.6052E-3
  3.438     0.6024E-3
  3.439     0.5995E-3
  3.440     0.5967E-3
  3.441     0.5939E-3
  3.442     0.5912E-3
  3.443     0.5884E-3
  3.444     0.5857E-3
  3.445     0.5829E-3
  3.446     0.5802E-3
  3.447     0.5776E-3
  3.449     0.5749E-3
  3.450     0.5723E-3
  3.451     0.5696E-3
  3.452     0.5670E-3
  3.453     0.5644E-3
  3.454     0.5619E-3
  3.455     0.5593E-3
  3.456     0.5568E-3
  3.457     0.5543E-3
  3.458     0.5518E-3
  3.459     0.5493E-3
  3.460     0.5468E-3
  3.461     0.5444E-3
  3.462     0.5419E-3
  3.463     0.5395E-3
  3.464     0.5371E-3
  3.465     0.5347E-3
  3.466     0.5323E-3
  3.467     0.5300E-3
  3.468     0.5277E-3
  3.469     0.5253E-3
  3.470     0.5230E-3
  3.472     0.5207E-3
  3.473     0.5184E-3
  3.474     0.5162E-3
  3.475     0.5139E-3
  3.476     0.5117E-3
  3.477     0.5095E-3
  3.478     0.5073E-3
  3.479     0.5051E-3
  3.480     0.5029E-3
  3.481     0.5007E-3
  3.482     0.4986E-3
  3.483     0.4965E-3
  3.484     0.4943E-3
  3.485     0.4922E-3
  3.486     0.4901E-3
  3.487     0.4881E-3
  3.488     0.4860E-3
  3.489     0.4839E-3
  3.490     0.4819E-3
  3.491     0.4799E-3
  3.492     0.4779E-3
  3.494     0.4759E-3
  3.495     0.4739E-3
  3.496     0.4719E-3
  3.497     0.4699E-3
  3.498     0.4680E-3
  3.499     0.4660E-3
  3.500     0.4641E-3
  3.501     0.4622E-3
  3.502     0.4603E-3
  3.503     0.4584E-3
# 
# 06/20/2019 at 00:18 YPP @ br018.pvt.bridges.psc.edu [start]
# 06/20/2019 at 00:19                                 [end]
#  
# Timing   [Min/Max/Average]: 02s/02s/02s
#
# .-Input file : amp.in
# | excitons                     # [R] Excitons
# | amplitude                    # [R] Amplitude
# | BoseTemp=  0.02585     eV    # Bosonic Temperature
# | States= "1 - 20"             # Index of the BS state(s)
# | #DipWeight                   #  Weight the contribution to the exciton WFs with the dipoles
# | Degen_Step=0.1000E-4   eV    # Maximum energy separation of two degenerate states
