#                                                           
#   __   __     _        __  __       ____      U  ___  u   
#   \ \ / / U  /"\  U u |" \/ "| u U | __") u    \/"_ \/    
#    \ V /   \/ _ \/   \| |\/| |/   \|  _ \/     | | | |    
#   U_|"|_u  / ___ \    | |  | |     | |_) | .-,_| |_| |    
#     |_|   /_/   \_\   |_|  |_|     |____/   \_)-\___/     
# .-,//|(_   \\    >>  <<,-,,-.     _|| \\_        \\       
#  \_) (__) (__)  (__)  (./  \.)   (__) (__)      (__)      
#                                                           
#                                                           
#              GPL Version 4.1.4 Revision 76                
#                        MPI Build                          
#                http://www.yambo-code.org                  
#
# BSK|Identifier              :9599
#    |Dimension               :5098
#    |Bands                   :524 - 624
#    |Exchange           [res]: yes
#    |Correlation        [res]: no
#    |Kernel`s coupling       : no
#    |Exchange           [cpl]: no
#    |Correlation        [cpl]: no
#    |W interaction is bare   : no
#    |ALDA kernel in R-space  : no
#    |RL vectors    [exchange]:55207
#    |E/h energy range    [ev]:-1.000000 - -1.000000
#    |Coupling range     [o/o]: 100.0000 -  100.0000
#
# Electron-Hole pairs that contributes to Excitonic State 16 more than 5%
#
#  E    [eV]  Amplitude
#  
  2.447     0.6024E-3
  2.448     0.6049E-3
  2.449     0.6074E-3
  2.450     0.6099E-3
  2.451     0.6125E-3
  2.452     0.6151E-3
  2.453     0.6177E-3
  2.454     0.6203E-3
  2.456     0.6229E-3
  2.457     0.6255E-3
  2.458     0.6282E-3
  2.459     0.6308E-3
  2.460     0.6335E-3
  2.461     0.6362E-3
  2.462     0.6389E-3
  2.463     0.6417E-3
  2.464     0.6444E-3
  2.466     0.6472E-3
  2.467     0.6500E-3
  2.468     0.6528E-3
  2.469     0.6556E-3
  2.470     0.6585E-3
  2.471     0.6613E-3
  2.472     0.6642E-3
  2.473     0.6671E-3
  2.475     0.6700E-3
  2.476     0.6730E-3
  2.477     0.6759E-3
  2.478     0.6789E-3
  2.479     0.6819E-3
  2.480     0.6849E-3
  2.481     0.6880E-3
  2.482     0.6910E-3
  2.483     0.6941E-3
  2.485     0.6972E-3
  2.486     0.7004E-3
  2.487     0.7035E-3
  2.488     0.7067E-3
  2.489     0.7098E-3
  2.490     0.7131E-3
  2.491     0.7163E-3
  2.492     0.7195E-3
  2.493     0.7228E-3
  2.495     0.7261E-3
  2.496     0.7294E-3
  2.497     0.7328E-3
  2.498     0.7361E-3
  2.499     0.7395E-3
  2.500     0.7429E-3
  2.501     0.7464E-3
  2.502     0.7498E-3
  2.504     0.7533E-3
  2.505     0.7568E-3
  2.506     0.7603E-3
  2.507     0.7639E-3
  2.508     0.7675E-3
  2.509     0.7711E-3
  2.510     0.7747E-3
  2.511     0.7784E-3
  2.512     0.7821E-3
  2.514     0.7858E-3
  2.515     0.7895E-3
  2.516     0.7933E-3
  2.517     0.7971E-3
  2.518     0.8009E-3
  2.519     0.8047E-3
  2.520     0.8086E-3
  2.521     0.8125E-3
  2.523     0.8164E-3
  2.524     0.8204E-3
  2.525     0.8244E-3
  2.526     0.8284E-3
  2.527     0.8324E-3
  2.528     0.8365E-3
  2.529     0.8406E-3
  2.530     0.8448E-3
  2.531     0.8489E-3
  2.533     0.8531E-3
  2.534     0.8573E-3
  2.535     0.8616E-3
  2.536     0.8659E-3
  2.537     0.8702E-3
  2.538     0.8746E-3
  2.539     0.8790E-3
  2.540     0.8834E-3
  2.542     0.8878E-3
  2.543     0.8923E-3
  2.544     0.8969E-3
  2.545     0.9014E-3
  2.546     0.9060E-3
  2.547     0.9106E-3
  2.548     0.9153E-3
  2.549     0.9200E-3
  2.550     0.9248E-3
  2.552     0.9295E-3
  2.553     0.9343E-3
  2.554     0.9392E-3
  2.555     0.9441E-3
  2.556     0.9490E-3
  2.557     0.9540E-3
  2.558     0.9590E-3
  2.559     0.9640E-3
  2.560     0.9691E-3
  2.562     0.9742E-3
  2.563     0.9794E-3
  2.564     0.9846E-3
  2.565     0.9898E-3
  2.566     0.9951E-3
  2.567     0.1000E-2
  2.568     0.1006E-2
  2.569     0.1011E-2
  2.571     0.1017E-2
  2.572     0.1022E-2
  2.573     0.1028E-2
  2.574     0.1033E-2
  2.575     0.1039E-2
  2.576     0.1045E-2
  2.577     0.1050E-2
  2.578     0.1056E-2
  2.579     0.1062E-2
  2.581     0.1068E-2
  2.582     0.1074E-2
  2.583     0.1080E-2
  2.584     0.1086E-2
  2.585     0.1092E-2
  2.586     0.1098E-2
  2.587     0.1104E-2
  2.588     0.1110E-2
  2.590     0.1117E-2
  2.591     0.1123E-2
  2.592     0.1130E-2
  2.593     0.1136E-2
  2.594     0.1142E-2
  2.595     0.1149E-2
  2.596     0.1156E-2
  2.597     0.1162E-2
  2.598     0.1169E-2
  2.600     0.1176E-2
  2.601     0.1183E-2
  2.602     0.1190E-2
  2.603     0.1197E-2
  2.604     0.1204E-2
  2.605     0.1211E-2
  2.606     0.1218E-2
  2.607     0.1225E-2
  2.609     0.1232E-2
  2.610     0.1240E-2
  2.611     0.1247E-2
  2.612     0.1255E-2
  2.613     0.1262E-2
  2.614     0.1270E-2
  2.615     0.1278E-2
  2.616     0.1285E-2
  2.617     0.1293E-2
  2.619     0.1301E-2
  2.620     0.1309E-2
  2.621     0.1317E-2
  2.622     0.1325E-2
  2.623     0.1333E-2
  2.624     0.1342E-2
  2.625     0.1350E-2
  2.626     0.1359E-2
  2.628     0.1367E-2
  2.629     0.1376E-2
  2.630     0.1384E-2
  2.631     0.1393E-2
  2.632     0.1402E-2
  2.633     0.1411E-2
  2.634     0.1420E-2
  2.635     0.1429E-2
  2.636     0.1438E-2
  2.638     0.1447E-2
  2.639     0.1457E-2
  2.640     0.1466E-2
  2.641     0.1476E-2
  2.642     0.1486E-2
  2.643     0.1495E-2
  2.644     0.1505E-2
  2.645     0.1515E-2
  2.646     0.1525E-2
  2.648     0.1535E-2
  2.649     0.1545E-2
  2.650     0.1556E-2
  2.651     0.1566E-2
  2.652     0.1577E-2
  2.653     0.1588E-2
  2.654     0.1598E-2
  2.655     0.1609E-2
  2.657     0.1620E-2
  2.658     0.1631E-2
  2.659     0.1642E-2
  2.660     0.1654E-2
  2.661     0.1665E-2
  2.662     0.1677E-2
  2.663     0.1689E-2
  2.664     0.1700E-2
  2.665     0.1712E-2
  2.667     0.1724E-2
  2.668     0.1737E-2
  2.669     0.1749E-2
  2.670     0.1761E-2
  2.671     0.1774E-2
  2.672     0.1787E-2
  2.673     0.1800E-2
  2.674     0.1813E-2
  2.676     0.1826E-2
  2.677     0.1839E-2
  2.678     0.1853E-2
  2.679     0.1866E-2
  2.680     0.1880E-2
  2.681     0.1894E-2
  2.682     0.1908E-2
  2.683     0.1922E-2
  2.684     0.1936E-2
  2.686     0.1951E-2
  2.687     0.1966E-2
  2.688     0.1981E-2
  2.689     0.1996E-2
  2.690     0.2011E-2
  2.691     0.2026E-2
  2.692     0.2042E-2
  2.693     0.2057E-2
  2.695     0.2073E-2
  2.696     0.2089E-2
  2.697     0.2106E-2
  2.698     0.2122E-2
  2.699     0.2139E-2
  2.700     0.2156E-2
  2.701     0.2173E-2
  2.702     0.2190E-2
  2.703     0.2208E-2
  2.705     0.2225E-2
  2.706     0.2243E-2
  2.707     0.2262E-2
  2.708     0.2280E-2
  2.709     0.2298E-2
  2.710     0.2317E-2
  2.711     0.2336E-2
  2.712     0.2356E-2
  2.714     0.2375E-2
  2.715     0.2395E-2
  2.716     0.2415E-2
  2.717     0.2435E-2
  2.718     0.2456E-2
  2.719     0.2477E-2
  2.720     0.2498E-2
  2.721     0.2519E-2
  2.722     0.2541E-2
  2.724     0.2563E-2
  2.725     0.2585E-2
  2.726     0.2607E-2
  2.727     0.2630E-2
  2.728     0.2653E-2
  2.729     0.2676E-2
  2.730     0.2700E-2
  2.731     0.2724E-2
    2.7325     0.0027
    2.7336     0.0028
    2.7347     0.0028
    2.7358     0.0028
    2.7370     0.0028
    2.7381     0.0029
    2.7392     0.0029
    2.7403     0.0029
    2.7414     0.0030
    2.7425     0.0030
    2.7437     0.0030
    2.7448     0.0030
    2.7459     0.0031
    2.7470     0.0031
    2.7481     0.0031
    2.7492     0.0032
    2.7504     0.0032
    2.7515     0.0032
    2.7526     0.0032
    2.7537     0.0033
    2.7548     0.0033
    2.7559     0.0033
    2.7571     0.0034
    2.7582     0.0034
    2.7593     0.0034
    2.7604     0.0035
    2.7615     0.0035
    2.7626     0.0036
    2.7638     0.0036
    2.7649     0.0036
    2.7660     0.0037
    2.7671     0.0037
    2.7682     0.0037
    2.7693     0.0038
    2.7705     0.0038
    2.7716     0.0039
    2.7727     0.0039
    2.7738     0.0039
    2.7749     0.0040
    2.7760     0.0040
    2.7772     0.0041
    2.7783     0.0041
    2.7794     0.0042
    2.7805     0.0042
    2.7816     0.0043
    2.7827     0.0043
    2.7839     0.0044
    2.7850     0.0044
    2.7861     0.0045
    2.7872     0.0045
    2.7883     0.0046
    2.7894     0.0046
    2.7906     0.0047
    2.7917     0.0047
    2.7928     0.0048
    2.7939     0.0048
    2.7950     0.0049
    2.7961     0.0049
    2.7973     0.0050
    2.7984     0.0051
    2.7995     0.0051
    2.8006     0.0052
    2.8017     0.0053
    2.8028     0.0053
    2.8040     0.0054
    2.8051     0.0055
    2.8062     0.0055
    2.8073     0.0056
    2.8084     0.0057
    2.8095     0.0057
    2.8107     0.0058
    2.8118     0.0059
    2.8129     0.0060
    2.8140     0.0061
    2.8151     0.0061
    2.8162     0.0062
    2.8174     0.0063
    2.8185     0.0064
    2.8196     0.0065
    2.8207     0.0066
    2.8218     0.0067
    2.8229     0.0068
    2.8241     0.0069
    2.8252     0.0070
    2.8263     0.0071
    2.8274     0.0072
    2.8285     0.0073
    2.8296     0.0074
    2.8308     0.0075
    2.8319     0.0076
    2.8330     0.0077
    2.8341     0.0078
    2.8352     0.0080
    2.8363     0.0081
    2.8375     0.0082
    2.8386     0.0083
    2.8397     0.0085
    2.8408     0.0086
    2.8419     0.0087
    2.8430     0.0089
    2.8442     0.0090
    2.8453     0.0092
    2.8464     0.0093
    2.8475     0.0095
    2.8486     0.0097
    2.8497     0.0098
    2.8509     0.0100
   2.85198    0.01017
   2.85310    0.01035
   2.85422    0.01053
   2.85533    0.01072
   2.85645    0.01092
   2.85757    0.01112
   2.85868    0.01133
   2.85980    0.01154
   2.86092    0.01176
   2.86203    0.01199
   2.86315    0.01222
   2.86427    0.01246
   2.86538    0.01270
   2.86650    0.01296
   2.86762    0.01322
   2.86873    0.01349
   2.86985    0.01377
   2.87097    0.01406
   2.87208    0.01435
   2.87320    0.01466
   2.87432    0.01498
   2.87543    0.01531
   2.87655    0.01565
   2.87767    0.01600
   2.87879    0.01636
   2.87990    0.01674
   2.88102    0.01713
   2.88214    0.01753
   2.88325    0.01795
   2.88437    0.01838
   2.88549    0.01884
   2.88660    0.01930
   2.88772    0.01979
   2.88884    0.02030
   2.88995    0.02083
   2.89107    0.02138
   2.89219    0.02195
   2.89330    0.02255
   2.89442    0.02317
   2.89554    0.02382
   2.89665    0.02450
   2.89777    0.02521
   2.89889    0.02595
   2.90000    0.02673
   2.90112    0.02755
   2.90224    0.02841
   2.90335    0.02931
   2.90447    0.03026
   2.90559    0.03126
   2.90670    0.03231
   2.90782    0.03342
   2.90894    0.03459
   2.91006    0.03583
   2.91117    0.03715
   2.91229    0.03854
   2.91341    0.04003
   2.91452    0.04160
   2.91564    0.04328
   2.91676    0.04508
   2.91787    0.04700
   2.91899    0.04906
   2.92011    0.05127
   2.92122    0.05365
   2.92234    0.05622
   2.92346    0.05900
   2.92457    0.06201
   2.92569    0.06528
   2.92681    0.06884
   2.92792    0.07273
   2.92904    0.07698
   2.93016    0.08165
   2.93127    0.08676
   2.93239    0.09239
   2.93351    0.09857
  2.934625   0.105355
  2.935742   0.112785
  2.936858   0.120879
  2.937975   0.129628
  2.939092   0.138972
  2.940209   0.148789
  2.941325   0.158868
  2.942442   0.168917
  2.943559   0.178564
  2.944676   0.187422
  2.945793   0.195151
  2.946910   0.201558
  2.948026   0.206649
  2.949143   0.210656
  2.950260   0.213985
  2.951376   0.217137
  2.952493   0.220629
  2.953610   0.224929
  2.954727   0.230438
  2.955844   0.237484
  2.956961   0.246340
  2.958077   0.257245
  2.959194   0.270431
  2.960311   0.286128
  2.961428   0.304597
  2.962544   0.326116
  2.963661   0.351009
  2.964778   0.379613
  2.965895   0.412304
  2.967012   0.449430
  2.968129   0.491318
  2.969245   0.538149
  2.970362   0.589924
  2.971479   0.646251
  2.972595   0.706238
  2.973712   0.768267
  2.974829   0.829816
  2.975946   0.887498
  2.977063   0.937198
  2.978180   0.974679
  2.979296   0.996314
  2.980413   1.000000
  2.981530   0.985691
  2.982647   0.955428
  2.983763   0.912813
  2.984880   0.862121
  2.985997   0.807532
  2.987114   0.752506
  2.988231   0.699622
  2.989348   0.650514
  2.990464   0.606098
  2.991581   0.566714
  2.992698   0.532386
  2.993815   0.502930
  2.994931   0.478110
  2.996048   0.457648
  2.997165   0.441249
  2.998282   0.428568
  2.999399   0.419147
  3.000515   0.412374
  3.001632   0.407447
  3.002749   0.403377
  3.003866   0.399055
  3.004982   0.393389
  3.006099   0.385486
  3.007216   0.374842
  3.008333   0.361430
  3.009450   0.345693
  3.010567   0.328378
  3.011683   0.310368
  3.012800   0.292491
  3.013917   0.275434
  3.015034   0.259683
  3.016150   0.245556
  3.017267   0.233217
  3.018384   0.222722
  3.019501   0.214059
  3.020618   0.207151
  3.021734   0.201883
  3.022851   0.198087
  3.023968   0.195546
  3.025085   0.193976
  3.026202   0.193035
  3.027318   0.192329
  3.028435   0.191454
  3.029552   0.190049
  3.030669   0.187856
  3.031786   0.184750
  3.032902   0.180735
  3.034019   0.175893
  3.035136   0.170339
  3.036253   0.164167
  3.037369   0.157461
  3.038486   0.150301
  3.039603   0.142795
  3.040720   0.135095
  3.041837   0.127376
  3.042953   0.119824
  3.044070   0.112598
  3.045187   0.105824
   3.04630    0.09958
   3.04742    0.09391
   3.04854    0.08883
   3.04965    0.08432
   3.05077    0.08037
   3.05189    0.07694
   3.05300    0.07400
   3.05412    0.07151
   3.05524    0.06942
   3.05635    0.06767
   3.05747    0.06620
   3.05859    0.06492
   3.05971    0.06373
   3.06082    0.06254
   3.06194    0.06122
   3.06306    0.05971
   3.06417    0.05794
   3.06529    0.05593
   3.06641    0.05369
   3.06752    0.05132
   3.06864    0.04887
   3.06976    0.04643
   3.07087    0.04406
   3.07199    0.04180
   3.07311    0.03967
   3.07422    0.03768
   3.07534    0.03585
   3.07646    0.03415
   3.07757    0.03259
   3.07869    0.03115
   3.07981    0.02982
   3.08092    0.02860
   3.08204    0.02747
   3.08316    0.02642
   3.08427    0.02544
   3.08539    0.02453
   3.08651    0.02368
   3.08763    0.02289
   3.08874    0.02214
   3.08986    0.02144
   3.09098    0.02078
   3.09209    0.02016
   3.09321    0.01957
   3.09433    0.01901
   3.09544    0.01848
   3.09656    0.01797
   3.09768    0.01749
   3.09879    0.01704
   3.09991    0.01660
   3.10103    0.01618
   3.10214    0.01578
   3.10326    0.01540
   3.10438    0.01504
   3.10549    0.01468
   3.10661    0.01435
   3.10773    0.01402
   3.10884    0.01371
   3.10996    0.01341
   3.11108    0.01312
   3.11219    0.01284
   3.11331    0.01257
   3.11443    0.01231
   3.11555    0.01206
   3.11666    0.01182
   3.11778    0.01158
   3.11890    0.01135
   3.12001    0.01113
   3.12113    0.01092
   3.12225    0.01071
   3.12336    0.01051
   3.12448    0.01032
   3.12560    0.01013
    3.1267     0.0099
    3.1278     0.0098
    3.1289     0.0096
    3.1301     0.0094
    3.1312     0.0093
    3.1323     0.0091
    3.1334     0.0090
    3.1345     0.0088
    3.1356     0.0087
    3.1368     0.0085
    3.1379     0.0084
    3.1390     0.0082
    3.1401     0.0081
    3.1412     0.0080
    3.1423     0.0079
    3.1435     0.0077
    3.1446     0.0076
    3.1457     0.0075
    3.1468     0.0074
    3.1479     0.0073
    3.1490     0.0072
    3.1502     0.0071
    3.1513     0.0070
    3.1524     0.0069
    3.1535     0.0068
    3.1546     0.0067
    3.1557     0.0066
    3.1569     0.0065
    3.1580     0.0064
    3.1591     0.0063
    3.1602     0.0062
    3.1613     0.0061
    3.1625     0.0060
    3.1636     0.0060
    3.1647     0.0059
    3.1658     0.0058
    3.1669     0.0057
    3.1680     0.0056
    3.1692     0.0056
    3.1703     0.0055
    3.1714     0.0054
    3.1725     0.0054
    3.1736     0.0053
    3.1747     0.0052
    3.1759     0.0052
    3.1770     0.0051
    3.1781     0.0050
    3.1792     0.0050
    3.1803     0.0049
    3.1814     0.0049
    3.1826     0.0048
    3.1837     0.0047
    3.1848     0.0047
    3.1859     0.0046
    3.1870     0.0046
    3.1881     0.0045
    3.1893     0.0045
    3.1904     0.0044
    3.1915     0.0044
    3.1926     0.0043
    3.1937     0.0043
    3.1948     0.0042
    3.1960     0.0042
    3.1971     0.0041
    3.1982     0.0041
    3.1993     0.0040
    3.2004     0.0040
    3.2015     0.0040
    3.2027     0.0039
    3.2038     0.0039
    3.2049     0.0038
    3.2060     0.0038
    3.2071     0.0037
    3.2082     0.0037
    3.2094     0.0037
    3.2105     0.0036
    3.2116     0.0036
    3.2127     0.0036
    3.2138     0.0035
    3.2149     0.0035
    3.2161     0.0035
    3.2172     0.0034
    3.2183     0.0034
    3.2194     0.0033
    3.2205     0.0033
    3.2216     0.0033
    3.2228     0.0033
  3.224     0.3220E-2
  3.225     0.3189E-2
  3.226     0.3158E-2
  3.227     0.3128E-2
  3.228     0.3098E-2
  3.229     0.3069E-2
  3.231     0.3040E-2
  3.232     0.3012E-2
  3.233     0.2984E-2
  3.234     0.2956E-2
  3.235     0.2929E-2
  3.236     0.2902E-2
  3.237     0.2875E-2
  3.238     0.2849E-2
  3.240     0.2823E-2
  3.241     0.2798E-2
  3.242     0.2773E-2
  3.243     0.2748E-2
  3.244     0.2723E-2
  3.245     0.2699E-2
  3.246     0.2675E-2
  3.247     0.2652E-2
  3.248     0.2629E-2
  3.250     0.2606E-2
  3.251     0.2583E-2
  3.252     0.2561E-2
  3.253     0.2539E-2
  3.254     0.2517E-2
  3.255     0.2496E-2
  3.256     0.2475E-2
  3.257     0.2454E-2
  3.258     0.2433E-2
  3.260     0.2413E-2
  3.261     0.2393E-2
  3.262     0.2373E-2
  3.263     0.2353E-2
  3.264     0.2334E-2
  3.265     0.2315E-2
  3.266     0.2296E-2
  3.267     0.2277E-2
  3.269     0.2259E-2
  3.270     0.2241E-2
  3.271     0.2223E-2
  3.272     0.2205E-2
  3.273     0.2188E-2
  3.274     0.2170E-2
  3.275     0.2153E-2
  3.276     0.2136E-2
  3.277     0.2119E-2
  3.279     0.2103E-2
  3.280     0.2087E-2
  3.281     0.2070E-2
  3.282     0.2055E-2
  3.283     0.2039E-2
  3.284     0.2023E-2
  3.285     0.2008E-2
  3.286     0.1993E-2
  3.288     0.1977E-2
  3.289     0.1963E-2
  3.290     0.1948E-2
  3.291     0.1933E-2
  3.292     0.1919E-2
  3.293     0.1905E-2
  3.294     0.1891E-2
  3.295     0.1877E-2
  3.296     0.1863E-2
  3.298     0.1849E-2
  3.299     0.1836E-2
  3.300     0.1823E-2
  3.301     0.1810E-2
  3.302     0.1796E-2
  3.303     0.1784E-2
  3.304     0.1771E-2
  3.305     0.1758E-2
  3.307     0.1746E-2
  3.308     0.1733E-2
  3.309     0.1721E-2
  3.310     0.1709E-2
  3.311     0.1697E-2
  3.312     0.1685E-2
  3.313     0.1674E-2
  3.314     0.1662E-2
  3.315     0.1651E-2
  3.317     0.1639E-2
  3.318     0.1628E-2
  3.319     0.1617E-2
  3.320     0.1606E-2
  3.321     0.1595E-2
  3.322     0.1584E-2
  3.323     0.1574E-2
  3.324     0.1563E-2
  3.326     0.1553E-2
  3.327     0.1542E-2
  3.328     0.1532E-2
  3.329     0.1522E-2
  3.330     0.1512E-2
  3.331     0.1502E-2
  3.332     0.1492E-2
  3.333     0.1483E-2
  3.334     0.1473E-2
  3.336     0.1463E-2
  3.337     0.1454E-2
  3.338     0.1445E-2
  3.339     0.1435E-2
  3.340     0.1426E-2
  3.341     0.1417E-2
  3.342     0.1408E-2
  3.343     0.1399E-2
  3.344     0.1390E-2
  3.346     0.1381E-2
  3.347     0.1373E-2
  3.348     0.1364E-2
  3.349     0.1356E-2
  3.350     0.1347E-2
  3.351     0.1339E-2
  3.352     0.1331E-2
  3.353     0.1322E-2
  3.355     0.1314E-2
  3.356     0.1306E-2
  3.357     0.1298E-2
  3.358     0.1290E-2
  3.359     0.1283E-2
  3.360     0.1275E-2
  3.361     0.1267E-2
  3.362     0.1260E-2
  3.363     0.1252E-2
  3.365     0.1245E-2
  3.366     0.1237E-2
  3.367     0.1230E-2
  3.368     0.1222E-2
  3.369     0.1215E-2
  3.370     0.1208E-2
  3.371     0.1201E-2
  3.372     0.1194E-2
  3.374     0.1187E-2
  3.375     0.1180E-2
  3.376     0.1173E-2
  3.377     0.1167E-2
  3.378     0.1160E-2
  3.379     0.1153E-2
  3.380     0.1147E-2
  3.381     0.1140E-2
  3.382     0.1133E-2
  3.384     0.1127E-2
  3.385     0.1121E-2
  3.386     0.1114E-2
  3.387     0.1108E-2
  3.388     0.1102E-2
  3.389     0.1096E-2
  3.390     0.1090E-2
  3.391     0.1083E-2
  3.393     0.1077E-2
  3.394     0.1071E-2
  3.395     0.1066E-2
  3.396     0.1060E-2
  3.397     0.1054E-2
  3.398     0.1048E-2
  3.399     0.1042E-2
  3.400     0.1037E-2
  3.401     0.1031E-2
  3.403     0.1025E-2
  3.404     0.1020E-2
  3.405     0.1014E-2
  3.406     0.1009E-2
  3.407     0.1004E-2
  3.408     0.9982E-3
  3.409     0.9929E-3
  3.410     0.9876E-3
  3.411     0.9824E-3
  3.413     0.9772E-3
  3.414     0.9721E-3
  3.415     0.9669E-3
  3.416     0.9619E-3
  3.417     0.9568E-3
  3.418     0.9519E-3
  3.419     0.9469E-3
  3.420     0.9420E-3
  3.422     0.9371E-3
  3.423     0.9323E-3
  3.424     0.9275E-3
  3.425     0.9227E-3
  3.426     0.9180E-3
  3.427     0.9133E-3
  3.428     0.9086E-3
  3.429     0.9040E-3
  3.430     0.8994E-3
  3.432     0.8949E-3
  3.433     0.8904E-3
  3.434     0.8859E-3
  3.435     0.8814E-3
  3.436     0.8770E-3
  3.437     0.8727E-3
  3.438     0.8683E-3
  3.439     0.8640E-3
  3.441     0.8597E-3
  3.442     0.8555E-3
  3.443     0.8512E-3
  3.444     0.8471E-3
  3.445     0.8429E-3
  3.446     0.8388E-3
  3.447     0.8347E-3
  3.448     0.8306E-3
  3.449     0.8266E-3
  3.451     0.8226E-3
  3.452     0.8186E-3
  3.453     0.8146E-3
  3.454     0.8107E-3
  3.455     0.8068E-3
  3.456     0.8030E-3
  3.457     0.7991E-3
  3.458     0.7953E-3
  3.460     0.7915E-3
  3.461     0.7878E-3
  3.462     0.7841E-3
  3.463     0.7804E-3
  3.464     0.7767E-3
  3.465     0.7730E-3
  3.466     0.7694E-3
  3.467     0.7658E-3
  3.468     0.7622E-3
  3.470     0.7587E-3
  3.471     0.7552E-3
  3.472     0.7517E-3
  3.473     0.7482E-3
  3.474     0.7447E-3
  3.475     0.7413E-3
  3.476     0.7379E-3
  3.477     0.7345E-3
  3.479     0.7312E-3
  3.480     0.7279E-3
  3.481     0.7245E-3
  3.482     0.7213E-3
  3.483     0.7180E-3
  3.484     0.7147E-3
  3.485     0.7115E-3
  3.486     0.7083E-3
  3.487     0.7052E-3
  3.489     0.7020E-3
  3.490     0.6989E-3
  3.491     0.6957E-3
  3.492     0.6927E-3
  3.493     0.6896E-3
  3.494     0.6865E-3
  3.495     0.6835E-3
  3.496     0.6805E-3
  3.497     0.6775E-3
  3.499     0.6745E-3
  3.500     0.6716E-3
  3.501     0.6686E-3
  3.502     0.6657E-3
  3.503     0.6628E-3
  3.504     0.6599E-3
  3.505     0.6571E-3
  3.506     0.6543E-3
  3.508     0.6514E-3
  3.509     0.6486E-3
  3.510     0.6458E-3
  3.511     0.6431E-3
  3.512     0.6403E-3
  3.513     0.6376E-3
  3.514     0.6349E-3
  3.515     0.6322E-3
  3.516     0.6295E-3
  3.518     0.6269E-3
  3.519     0.6242E-3
  3.520     0.6216E-3
  3.521     0.6190E-3
  3.522     0.6164E-3
  3.523     0.6138E-3
  3.524     0.6112E-3
  3.525     0.6087E-3
  3.527     0.6062E-3
  3.528     0.6036E-3
  3.529     0.6011E-3
  3.530     0.5987E-3
  3.531     0.5962E-3
  3.532     0.5937E-3
  3.533     0.5913E-3
  3.534     0.5889E-3
  3.535     0.5865E-3
  3.537     0.5841E-3
  3.538     0.5817E-3
  3.539     0.5793E-3
  3.540     0.5770E-3
  3.541     0.5746E-3
  3.542     0.5723E-3
  3.543     0.5700E-3
  3.544     0.5677E-3
  3.546     0.5654E-3
  3.547     0.5632E-3
  3.548     0.5609E-3
  3.549     0.5587E-3
  3.550     0.5565E-3
  3.551     0.5542E-3
  3.552     0.5520E-3
  3.553     0.5499E-3
  3.554     0.5477E-3
  3.556     0.5455E-3
  3.557     0.5434E-3
  3.558     0.5412E-3
  3.559     0.5391E-3
  3.560     0.5370E-3
  3.561     0.5349E-3
  3.562     0.5328E-3
# 
# 06/20/2019 at 00:18 YPP @ br018.pvt.bridges.psc.edu [start]
# 06/20/2019 at 00:19                                 [end]
#  
# Timing   [Min/Max/Average]: 02s/02s/02s
#
# .-Input file : amp.in
# | excitons                     # [R] Excitons
# | amplitude                    # [R] Amplitude
# | BoseTemp=  0.02585     eV    # Bosonic Temperature
# | States= "1 - 20"             # Index of the BS state(s)
# | #DipWeight                   #  Weight the contribution to the exciton WFs with the dipoles
# | Degen_Step=0.1000E-4   eV    # Maximum energy separation of two degenerate states
