#  __      __   ______   __       __  _______    ______     
# |  \    /  \ /      \ |  \     /  \|       \  /      \    
#  \$$\  /  $$|  $$$$$$\| $$\   /  $$| $$$$$$$\|  $$$$$$\   
#   \$$\/  $$ | $$__| $$| $$$\ /  $$$| $$__/ $$| $$  | $$   
#    \$$  $$  | $$    $$| $$$$\  $$$$| $$    $$| $$  | $$   
#     \$$$$   | $$$$$$$$| $$\$$ $$ $$| $$$$$$$\| $$  | $$   
#     | $$    | $$  | $$| $$ \$$$| $$| $$__/ $$| $$__/ $$   
#     | $$    | $$  | $$| $$  \$ | $$| $$    $$ \$$    $$   
#      \$$     \$$   \$$ \$$      \$$ \$$$$$$$   \$$$$$$    
#                                                           
#              GPL Version 4.1.4 Revision 76                
#                        MPI Build                          
#                http://www.yambo-code.org                  
#
# BSK|Identifier              :7677
#    |Dimension               :3278
#    |Bands                   :534 - 614
#    |Exchange           [res]: yes
#    |Correlation        [res]: no
#    |Kernel`s coupling       : no
#    |Exchange           [cpl]: no
#    |Correlation        [cpl]: no
#    |W interaction is bare   : no
#    |ALDA kernel in R-space  : no
#    |RL vectors    [exchange]:55207
#    |E/h energy range    [ev]:-1.000000 - -1.000000
#    |Coupling range     [o/o]: 100.0000 -  100.0000
#
# Electron-Hole pairs that contributes to Excitonic State 16 more than 5%
#
#  E    [eV]  Amplitude
#  
  2.447     0.6229E-3
  2.448     0.6255E-3
  2.449     0.6281E-3
  2.450     0.6307E-3
  2.451     0.6334E-3
  2.452     0.6360E-3
  2.453     0.6387E-3
  2.454     0.6414E-3
  2.456     0.6441E-3
  2.457     0.6468E-3
  2.458     0.6495E-3
  2.459     0.6523E-3
  2.460     0.6551E-3
  2.461     0.6579E-3
  2.462     0.6607E-3
  2.463     0.6635E-3
  2.464     0.6663E-3
  2.466     0.6692E-3
  2.467     0.6721E-3
  2.468     0.6750E-3
  2.469     0.6779E-3
  2.470     0.6808E-3
  2.471     0.6838E-3
  2.472     0.6868E-3
  2.473     0.6898E-3
  2.475     0.6928E-3
  2.476     0.6958E-3
  2.477     0.6989E-3
  2.478     0.7020E-3
  2.479     0.7051E-3
  2.480     0.7082E-3
  2.481     0.7113E-3
  2.482     0.7145E-3
  2.483     0.7176E-3
  2.485     0.7208E-3
  2.486     0.7241E-3
  2.487     0.7273E-3
  2.488     0.7306E-3
  2.489     0.7339E-3
  2.490     0.7372E-3
  2.491     0.7405E-3
  2.492     0.7439E-3
  2.493     0.7472E-3
  2.495     0.7506E-3
  2.496     0.7541E-3
  2.497     0.7575E-3
  2.498     0.7610E-3
  2.499     0.7645E-3
  2.500     0.7680E-3
  2.501     0.7716E-3
  2.502     0.7751E-3
  2.504     0.7787E-3
  2.505     0.7823E-3
  2.506     0.7860E-3
  2.507     0.7897E-3
  2.508     0.7934E-3
  2.509     0.7971E-3
  2.510     0.8008E-3
  2.511     0.8046E-3
  2.512     0.8084E-3
  2.514     0.8122E-3
  2.515     0.8161E-3
  2.516     0.8200E-3
  2.517     0.8239E-3
  2.518     0.8278E-3
  2.519     0.8318E-3
  2.520     0.8358E-3
  2.521     0.8398E-3
  2.523     0.8439E-3
  2.524     0.8480E-3
  2.525     0.8521E-3
  2.526     0.8562E-3
  2.527     0.8604E-3
  2.528     0.8646E-3
  2.529     0.8688E-3
  2.530     0.8731E-3
  2.531     0.8774E-3
  2.533     0.8817E-3
  2.534     0.8861E-3
  2.535     0.8905E-3
  2.536     0.8949E-3
  2.537     0.8994E-3
  2.538     0.9039E-3
  2.539     0.9084E-3
  2.540     0.9130E-3
  2.542     0.9176E-3
  2.543     0.9222E-3
  2.544     0.9269E-3
  2.545     0.9316E-3
  2.546     0.9363E-3
  2.547     0.9411E-3
  2.548     0.9459E-3
  2.549     0.9507E-3
  2.550     0.9556E-3
  2.552     0.9606E-3
  2.553     0.9655E-3
  2.554     0.9705E-3
  2.555     0.9756E-3
  2.556     0.9806E-3
  2.557     0.9858E-3
  2.558     0.9909E-3
  2.559     0.9961E-3
  2.560     0.1001E-2
  2.562     0.1007E-2
  2.563     0.1012E-2
  2.564     0.1017E-2
  2.565     0.1023E-2
  2.566     0.1028E-2
  2.567     0.1034E-2
  2.568     0.1039E-2
  2.569     0.1045E-2
  2.571     0.1050E-2
  2.572     0.1056E-2
  2.573     0.1062E-2
  2.574     0.1068E-2
  2.575     0.1073E-2
  2.576     0.1079E-2
  2.577     0.1085E-2
  2.578     0.1091E-2
  2.579     0.1097E-2
  2.581     0.1103E-2
  2.582     0.1109E-2
  2.583     0.1116E-2
  2.584     0.1122E-2
  2.585     0.1128E-2
  2.586     0.1134E-2
  2.587     0.1141E-2
  2.588     0.1147E-2
  2.590     0.1154E-2
  2.591     0.1160E-2
  2.592     0.1167E-2
  2.593     0.1173E-2
  2.594     0.1180E-2
  2.595     0.1187E-2
  2.596     0.1194E-2
  2.597     0.1201E-2
  2.598     0.1208E-2
  2.600     0.1215E-2
  2.601     0.1222E-2
  2.602     0.1229E-2
  2.603     0.1236E-2
  2.604     0.1243E-2
  2.605     0.1251E-2
  2.606     0.1258E-2
  2.607     0.1265E-2
  2.609     0.1273E-2
  2.610     0.1280E-2
  2.611     0.1288E-2
  2.612     0.1296E-2
  2.613     0.1304E-2
  2.614     0.1311E-2
  2.615     0.1319E-2
  2.616     0.1327E-2
  2.617     0.1335E-2
  2.619     0.1344E-2
  2.620     0.1352E-2
  2.621     0.1360E-2
  2.622     0.1369E-2
  2.623     0.1377E-2
  2.624     0.1386E-2
  2.625     0.1394E-2
  2.626     0.1403E-2
  2.628     0.1412E-2
  2.629     0.1421E-2
  2.630     0.1429E-2
  2.631     0.1438E-2
  2.632     0.1448E-2
  2.633     0.1457E-2
  2.634     0.1466E-2
  2.635     0.1475E-2
  2.636     0.1485E-2
  2.638     0.1495E-2
  2.639     0.1504E-2
  2.640     0.1514E-2
  2.641     0.1524E-2
  2.642     0.1534E-2
  2.643     0.1544E-2
  2.644     0.1554E-2
  2.645     0.1564E-2
  2.646     0.1574E-2
  2.648     0.1585E-2
  2.649     0.1595E-2
  2.650     0.1606E-2
  2.651     0.1617E-2
  2.652     0.1628E-2
  2.653     0.1639E-2
  2.654     0.1650E-2
  2.655     0.1661E-2
  2.657     0.1672E-2
  2.658     0.1684E-2
  2.659     0.1695E-2
  2.660     0.1707E-2
  2.661     0.1719E-2
  2.662     0.1731E-2
  2.663     0.1743E-2
  2.664     0.1755E-2
  2.665     0.1767E-2
  2.667     0.1780E-2
  2.668     0.1792E-2
  2.669     0.1805E-2
  2.670     0.1818E-2
  2.671     0.1831E-2
  2.672     0.1844E-2
  2.673     0.1857E-2
  2.674     0.1871E-2
  2.676     0.1884E-2
  2.677     0.1898E-2
  2.678     0.1912E-2
  2.679     0.1926E-2
  2.680     0.1940E-2
  2.681     0.1954E-2
  2.682     0.1969E-2
  2.683     0.1983E-2
  2.684     0.1998E-2
  2.686     0.2013E-2
  2.687     0.2028E-2
  2.688     0.2043E-2
  2.689     0.2059E-2
  2.690     0.2075E-2
  2.691     0.2090E-2
  2.692     0.2106E-2
  2.693     0.2123E-2
  2.695     0.2139E-2
  2.696     0.2156E-2
  2.697     0.2172E-2
  2.698     0.2189E-2
  2.699     0.2206E-2
  2.700     0.2224E-2
  2.701     0.2241E-2
  2.702     0.2259E-2
  2.703     0.2277E-2
  2.705     0.2295E-2
  2.706     0.2314E-2
  2.707     0.2333E-2
  2.708     0.2351E-2
  2.709     0.2371E-2
  2.710     0.2390E-2
  2.711     0.2410E-2
  2.712     0.2429E-2
  2.714     0.2450E-2
  2.715     0.2470E-2
  2.716     0.2490E-2
  2.717     0.2511E-2
  2.718     0.2532E-2
  2.719     0.2554E-2
  2.720     0.2576E-2
  2.721     0.2597E-2
  2.722     0.2620E-2
  2.724     0.2642E-2
  2.725     0.2665E-2
  2.726     0.2688E-2
  2.727     0.2712E-2
    2.7280     0.0027
    2.7291     0.0028
    2.7303     0.0028
    2.7314     0.0028
    2.7325     0.0028
    2.7336     0.0029
    2.7347     0.0029
    2.7358     0.0029
    2.7370     0.0029
    2.7381     0.0030
    2.7392     0.0030
    2.7403     0.0030
    2.7414     0.0030
    2.7425     0.0031
    2.7437     0.0031
    2.7448     0.0031
    2.7459     0.0032
    2.7470     0.0032
    2.7481     0.0032
    2.7492     0.0033
    2.7504     0.0033
    2.7515     0.0033
    2.7526     0.0033
    2.7537     0.0034
    2.7548     0.0034
    2.7559     0.0034
    2.7571     0.0035
    2.7582     0.0035
    2.7593     0.0036
    2.7604     0.0036
    2.7615     0.0036
    2.7626     0.0037
    2.7638     0.0037
    2.7649     0.0037
    2.7660     0.0038
    2.7671     0.0038
    2.7682     0.0039
    2.7693     0.0039
    2.7705     0.0039
    2.7716     0.0040
    2.7727     0.0040
    2.7738     0.0041
    2.7749     0.0041
    2.7760     0.0041
    2.7772     0.0042
    2.7783     0.0042
    2.7794     0.0043
    2.7805     0.0043
    2.7816     0.0044
    2.7827     0.0044
    2.7839     0.0045
    2.7850     0.0045
    2.7861     0.0046
    2.7872     0.0046
    2.7883     0.0047
    2.7894     0.0047
    2.7906     0.0048
    2.7917     0.0049
    2.7928     0.0049
    2.7939     0.0050
    2.7950     0.0050
    2.7961     0.0051
    2.7973     0.0052
    2.7984     0.0052
    2.7995     0.0053
    2.8006     0.0053
    2.8017     0.0054
    2.8028     0.0055
    2.8040     0.0055
    2.8051     0.0056
    2.8062     0.0057
    2.8073     0.0058
    2.8084     0.0058
    2.8095     0.0059
    2.8107     0.0060
    2.8118     0.0061
    2.8129     0.0061
    2.8140     0.0062
    2.8151     0.0063
    2.8162     0.0064
    2.8174     0.0065
    2.8185     0.0066
    2.8196     0.0067
    2.8207     0.0068
    2.8218     0.0069
    2.8229     0.0070
    2.8241     0.0071
    2.8252     0.0072
    2.8263     0.0073
    2.8274     0.0074
    2.8285     0.0075
    2.8296     0.0076
    2.8308     0.0077
    2.8319     0.0078
    2.8330     0.0079
    2.8341     0.0080
    2.8352     0.0082
    2.8363     0.0083
    2.8375     0.0084
    2.8386     0.0086
    2.8397     0.0087
    2.8408     0.0088
    2.8419     0.0090
    2.8430     0.0091
    2.8442     0.0093
    2.8453     0.0094
    2.8464     0.0096
    2.8475     0.0097
    2.8486     0.0099
   2.84975    0.01008
   2.85087    0.01026
   2.85198    0.01044
   2.85310    0.01062
   2.85422    0.01081
   2.85533    0.01101
   2.85645    0.01121
   2.85757    0.01141
   2.85868    0.01162
   2.85980    0.01184
   2.86092    0.01206
   2.86203    0.01230
   2.86315    0.01253
   2.86427    0.01278
   2.86538    0.01303
   2.86650    0.01329
   2.86762    0.01356
   2.86873    0.01383
   2.86985    0.01412
   2.87097    0.01441
   2.87208    0.01471
   2.87320    0.01503
   2.87432    0.01535
   2.87543    0.01569
   2.87655    0.01603
   2.87767    0.01639
   2.87879    0.01676
   2.87990    0.01715
   2.88102    0.01754
   2.88214    0.01796
   2.88325    0.01838
   2.88437    0.01883
   2.88549    0.01929
   2.88660    0.01977
   2.88772    0.02026
   2.88884    0.02078
   2.88995    0.02132
   2.89107    0.02188
   2.89219    0.02246
   2.89330    0.02307
   2.89442    0.02371
   2.89554    0.02437
   2.89665    0.02507
   2.89777    0.02579
   2.89889    0.02655
   2.90000    0.02734
   2.90112    0.02818
   2.90224    0.02905
   2.90335    0.02997
   2.90447    0.03094
   2.90559    0.03196
   2.90670    0.03303
   2.90782    0.03416
   2.90894    0.03536
   2.91006    0.03662
   2.91117    0.03796
   2.91229    0.03938
   2.91341    0.04089
   2.91452    0.04250
   2.91564    0.04422
   2.91676    0.04605
   2.91787    0.04801
   2.91899    0.05011
   2.92011    0.05237
   2.92122    0.05480
   2.92234    0.05742
   2.92346    0.06025
   2.92457    0.06333
   2.92569    0.06667
   2.92681    0.07031
   2.92792    0.07428
   2.92904    0.07863
   2.93016    0.08339
   2.93127    0.08862
   2.93239    0.09437
  2.933508   0.100698
  2.934625   0.107640
  2.935742   0.115243
  2.936858   0.123525
  2.937975   0.132478
  2.939092   0.142038
  2.940209   0.152078
  2.941325   0.162377
  2.942442   0.172634
  2.943559   0.182462
  2.944676   0.191460
  2.945793   0.199273
  2.946910   0.205699
  2.948026   0.210744
  2.949143   0.214643
  2.950260   0.217815
  2.951376   0.220774
  2.952493   0.224050
  2.953610   0.228124
  2.954727   0.233406
  2.955844   0.240226
  2.956961   0.248863
  2.958077   0.259553
  2.959194   0.272528
  2.960311   0.288014
  2.961428   0.306270
  2.962544   0.327568
  2.963661   0.352229
  2.964778   0.380586
  2.965895   0.413009
  2.967012   0.449843
  2.968129   0.491411
  2.969245   0.537896
  2.970362   0.589302
  2.971479   0.645246
  2.972595   0.704853
  2.973712   0.766538
  2.974829   0.827817
  2.975946   0.885365
  2.977063   0.935131
  2.978180   0.972951
  2.979296   0.995262
  2.980413   1.000000
  2.981530   0.987132
  2.982647   0.958678
  2.983763   0.918195
  2.984880   0.869895
  2.985997   0.817888
  2.987114   0.765563
  2.988231   0.715424
  2.989348   0.669029
  2.990464   0.627218
  2.991581   0.590264
  2.992698   0.558143
  2.993815   0.530654
  2.994931   0.507582
  2.996048   0.488704
  2.997165   0.473793
  2.998282   0.462572
  2.999399   0.454621
  3.000515   0.449329
  3.001632   0.445838
  3.002749   0.443064
  3.003866   0.439760
  3.004982   0.434691
  3.006099   0.426844
  3.007216   0.415651
  3.008333   0.401101
  3.009450   0.383721
  3.010567   0.364393
  3.011683   0.344158
  3.012800   0.323986
  3.013917   0.304683
  3.015034   0.286821
  3.016150   0.270772
  3.017267   0.256731
  3.018384   0.244764
  3.019501   0.234859
  3.020618   0.226927
  3.021734   0.220837
  3.022851   0.216400
  3.023968   0.213370
  3.025085   0.211431
  3.026202   0.210199
  3.027318   0.209239
  3.028435   0.208101
  3.029552   0.206386
  3.030669   0.203811
  3.031786   0.200238
  3.032902   0.195675
  3.034019   0.190219
  3.035136   0.184002
  3.036253   0.177137
  3.037369   0.169722
  3.038486   0.161849
  3.039603   0.153635
  3.040720   0.145244
  3.041837   0.136861
  3.042953   0.128679
  3.044070   0.120867
  3.045187   0.113554
  3.046304   0.106822
  3.047421   0.100716
   3.04854    0.09524
   3.04965    0.09040
   3.05077    0.08615
   3.05189    0.08247
   3.05300    0.07932
   3.05412    0.07665
   3.05524    0.07441
   3.05635    0.07254
   3.05747    0.07097
   3.05859    0.06961
   3.05971    0.06835
   3.06082    0.06708
   3.06194    0.06568
   3.06306    0.06405
   3.06417    0.06216
   3.06529    0.05998
   3.06641    0.05757
   3.06752    0.05500
   3.06864    0.05236
   3.06976    0.04972
   3.07087    0.04716
   3.07199    0.04471
   3.07311    0.04241
   3.07422    0.04027
   3.07534    0.03828
   3.07646    0.03645
   3.07757    0.03477
   3.07869    0.03321
   3.07981    0.03178
   3.08092    0.03046
   3.08204    0.02924
   3.08316    0.02811
   3.08427    0.02706
   3.08539    0.02608
   3.08651    0.02517
   3.08763    0.02431
   3.08874    0.02351
   3.08986    0.02276
   3.09098    0.02205
   3.09209    0.02138
   3.09321    0.02075
   3.09433    0.02015
   3.09544    0.01958
   3.09656    0.01904
   3.09768    0.01853
   3.09879    0.01804
   3.09991    0.01757
   3.10103    0.01712
   3.10214    0.01670
   3.10326    0.01629
   3.10438    0.01590
   3.10549    0.01552
   3.10661    0.01516
   3.10773    0.01482
   3.10884    0.01448
   3.10996    0.01416
   3.11108    0.01385
   3.11219    0.01356
   3.11331    0.01327
   3.11443    0.01299
   3.11555    0.01272
   3.11666    0.01247
   3.11778    0.01222
   3.11890    0.01197
   3.12001    0.01174
   3.12113    0.01151
   3.12225    0.01129
   3.12336    0.01108
   3.12448    0.01087
   3.12560    0.01067
   3.12671    0.01048
   3.12783    0.01029
   3.12895    0.01011
    3.1301     0.0099
    3.1312     0.0098
    3.1323     0.0096
    3.1334     0.0094
    3.1345     0.0093
    3.1356     0.0091
    3.1368     0.0090
    3.1379     0.0088
    3.1390     0.0087
    3.1401     0.0085
    3.1412     0.0084
    3.1423     0.0083
    3.1435     0.0081
    3.1446     0.0080
    3.1457     0.0079
    3.1468     0.0078
    3.1479     0.0076
    3.1490     0.0075
    3.1502     0.0074
    3.1513     0.0073
    3.1524     0.0072
    3.1535     0.0071
    3.1546     0.0070
    3.1557     0.0069
    3.1569     0.0068
    3.1580     0.0067
    3.1591     0.0066
    3.1602     0.0065
    3.1613     0.0064
    3.1625     0.0063
    3.1636     0.0063
    3.1647     0.0062
    3.1658     0.0061
    3.1669     0.0060
    3.1680     0.0059
    3.1692     0.0058
    3.1703     0.0058
    3.1714     0.0057
    3.1725     0.0056
    3.1736     0.0056
    3.1747     0.0055
    3.1759     0.0054
    3.1770     0.0053
    3.1781     0.0053
    3.1792     0.0052
    3.1803     0.0052
    3.1814     0.0051
    3.1826     0.0050
    3.1837     0.0050
    3.1848     0.0049
    3.1859     0.0049
    3.1870     0.0048
    3.1881     0.0047
    3.1893     0.0047
    3.1904     0.0046
    3.1915     0.0046
    3.1926     0.0045
    3.1937     0.0045
    3.1948     0.0044
    3.1960     0.0044
    3.1971     0.0043
    3.1982     0.0043
    3.1993     0.0042
    3.2004     0.0042
    3.2015     0.0041
    3.2027     0.0041
    3.2038     0.0041
    3.2049     0.0040
    3.2060     0.0040
    3.2071     0.0039
    3.2082     0.0039
    3.2094     0.0038
    3.2105     0.0038
    3.2116     0.0038
    3.2127     0.0037
    3.2138     0.0037
    3.2149     0.0036
    3.2161     0.0036
    3.2172     0.0036
    3.2183     0.0035
    3.2194     0.0035
    3.2205     0.0035
    3.2216     0.0034
    3.2228     0.0034
    3.2239     0.0034
    3.2250     0.0033
    3.2261     0.0033
    3.2272     0.0033
    3.2283     0.0032
  3.229     0.3210E-2
  3.231     0.3179E-2
  3.232     0.3149E-2
  3.233     0.3120E-2
  3.234     0.3091E-2
  3.235     0.3062E-2
  3.236     0.3034E-2
  3.237     0.3006E-2
  3.238     0.2978E-2
  3.240     0.2951E-2
  3.241     0.2925E-2
  3.242     0.2898E-2
  3.243     0.2872E-2
  3.244     0.2846E-2
  3.245     0.2821E-2
  3.246     0.2796E-2
  3.247     0.2772E-2
  3.248     0.2747E-2
  3.250     0.2723E-2
  3.251     0.2700E-2
  3.252     0.2676E-2
  3.253     0.2653E-2
  3.254     0.2630E-2
  3.255     0.2608E-2
  3.256     0.2586E-2
  3.257     0.2564E-2
  3.258     0.2542E-2
  3.260     0.2521E-2
  3.261     0.2500E-2
  3.262     0.2479E-2
  3.263     0.2458E-2
  3.264     0.2438E-2
  3.265     0.2418E-2
  3.266     0.2398E-2
  3.267     0.2379E-2
  3.269     0.2359E-2
  3.270     0.2340E-2
  3.271     0.2322E-2
  3.272     0.2303E-2
  3.273     0.2285E-2
  3.274     0.2266E-2
  3.275     0.2248E-2
  3.276     0.2231E-2
  3.277     0.2213E-2
  3.279     0.2196E-2
  3.280     0.2179E-2
  3.281     0.2162E-2
  3.282     0.2145E-2
  3.283     0.2129E-2
  3.284     0.2112E-2
  3.285     0.2096E-2
  3.286     0.2080E-2
  3.288     0.2064E-2
  3.289     0.2049E-2
  3.290     0.2033E-2
  3.291     0.2018E-2
  3.292     0.2003E-2
  3.293     0.1988E-2
  3.294     0.1974E-2
  3.295     0.1959E-2
  3.296     0.1945E-2
  3.298     0.1930E-2
  3.299     0.1916E-2
  3.300     0.1902E-2
  3.301     0.1889E-2
  3.302     0.1875E-2
  3.303     0.1861E-2
  3.304     0.1848E-2
  3.305     0.1835E-2
  3.307     0.1822E-2
  3.308     0.1809E-2
  3.309     0.1796E-2
  3.310     0.1784E-2
  3.311     0.1771E-2
  3.312     0.1759E-2
  3.313     0.1746E-2
  3.314     0.1734E-2
  3.315     0.1722E-2
  3.317     0.1710E-2
  3.318     0.1699E-2
  3.319     0.1687E-2
  3.320     0.1676E-2
  3.321     0.1664E-2
  3.322     0.1653E-2
  3.323     0.1642E-2
  3.324     0.1631E-2
  3.326     0.1620E-2
  3.327     0.1609E-2
  3.328     0.1598E-2
  3.329     0.1588E-2
  3.330     0.1577E-2
  3.331     0.1567E-2
  3.332     0.1557E-2
  3.333     0.1546E-2
  3.334     0.1536E-2
  3.336     0.1526E-2
  3.337     0.1516E-2
  3.338     0.1507E-2
  3.339     0.1497E-2
  3.340     0.1487E-2
  3.341     0.1478E-2
  3.342     0.1468E-2
  3.343     0.1459E-2
  3.344     0.1450E-2
  3.346     0.1441E-2
  3.347     0.1432E-2
  3.348     0.1423E-2
  3.349     0.1414E-2
  3.350     0.1405E-2
  3.351     0.1396E-2
  3.352     0.1387E-2
  3.353     0.1379E-2
  3.355     0.1370E-2
  3.356     0.1362E-2
  3.357     0.1354E-2
  3.358     0.1345E-2
  3.359     0.1337E-2
  3.360     0.1329E-2
  3.361     0.1321E-2
  3.362     0.1313E-2
  3.363     0.1305E-2
  3.365     0.1297E-2
  3.366     0.1290E-2
  3.367     0.1282E-2
  3.368     0.1274E-2
  3.369     0.1267E-2
  3.370     0.1259E-2
  3.371     0.1252E-2
  3.372     0.1245E-2
  3.374     0.1237E-2
  3.375     0.1230E-2
  3.376     0.1223E-2
  3.377     0.1216E-2
  3.378     0.1209E-2
  3.379     0.1202E-2
  3.380     0.1195E-2
  3.381     0.1188E-2
  3.382     0.1181E-2
  3.384     0.1175E-2
  3.385     0.1168E-2
  3.386     0.1161E-2
  3.387     0.1155E-2
  3.388     0.1148E-2
  3.389     0.1142E-2
  3.390     0.1135E-2
  3.391     0.1129E-2
  3.393     0.1123E-2
  3.394     0.1117E-2
  3.395     0.1110E-2
  3.396     0.1104E-2
  3.397     0.1098E-2
  3.398     0.1092E-2
  3.399     0.1086E-2
  3.400     0.1080E-2
  3.401     0.1074E-2
  3.403     0.1069E-2
  3.404     0.1063E-2
  3.405     0.1057E-2
  3.406     0.1051E-2
  3.407     0.1046E-2
  3.408     0.1040E-2
  3.409     0.1035E-2
  3.410     0.1029E-2
  3.411     0.1024E-2
  3.413     0.1018E-2
  3.414     0.1013E-2
  3.415     0.1007E-2
  3.416     0.1002E-2
  3.417     0.9969E-3
  3.418     0.9917E-3
  3.419     0.9865E-3
  3.420     0.9814E-3
  3.422     0.9763E-3
  3.423     0.9712E-3
  3.424     0.9662E-3
  3.425     0.9612E-3
  3.426     0.9563E-3
  3.427     0.9514E-3
  3.428     0.9466E-3
  3.429     0.9417E-3
  3.430     0.9370E-3
  3.432     0.9322E-3
  3.433     0.9275E-3
  3.434     0.9228E-3
  3.435     0.9182E-3
  3.436     0.9136E-3
  3.437     0.9090E-3
  3.438     0.9045E-3
  3.439     0.9000E-3
  3.441     0.8955E-3
  3.442     0.8910E-3
  3.443     0.8866E-3
  3.444     0.8823E-3
  3.445     0.8779E-3
  3.446     0.8736E-3
  3.447     0.8693E-3
  3.448     0.8651E-3
  3.449     0.8609E-3
  3.451     0.8567E-3
  3.452     0.8526E-3
  3.453     0.8484E-3
  3.454     0.8443E-3
  3.455     0.8403E-3
  3.456     0.8363E-3
  3.457     0.8322E-3
  3.458     0.8283E-3
  3.460     0.8243E-3
  3.461     0.8204E-3
  3.462     0.8165E-3
  3.463     0.8127E-3
  3.464     0.8088E-3
  3.465     0.8050E-3
  3.466     0.8012E-3
  3.467     0.7975E-3
  3.468     0.7938E-3
  3.470     0.7901E-3
  3.471     0.7864E-3
  3.472     0.7827E-3
  3.473     0.7791E-3
  3.474     0.7755E-3
  3.475     0.7719E-3
  3.476     0.7684E-3
  3.477     0.7649E-3
  3.479     0.7614E-3
  3.480     0.7579E-3
  3.481     0.7544E-3
  3.482     0.7510E-3
  3.483     0.7476E-3
  3.484     0.7442E-3
  3.485     0.7408E-3
  3.486     0.7375E-3
  3.487     0.7342E-3
  3.489     0.7309E-3
  3.490     0.7276E-3
  3.491     0.7244E-3
  3.492     0.7212E-3
  3.493     0.7179E-3
  3.494     0.7148E-3
  3.495     0.7116E-3
  3.496     0.7085E-3
  3.497     0.7053E-3
  3.499     0.7022E-3
  3.500     0.6992E-3
  3.501     0.6961E-3
  3.502     0.6931E-3
  3.503     0.6900E-3
  3.504     0.6870E-3
  3.505     0.6841E-3
  3.506     0.6811E-3
  3.508     0.6782E-3
  3.509     0.6752E-3
  3.510     0.6723E-3
  3.511     0.6694E-3
  3.512     0.6666E-3
  3.513     0.6637E-3
  3.514     0.6609E-3
  3.515     0.6581E-3
  3.516     0.6553E-3
  3.518     0.6525E-3
  3.519     0.6498E-3
  3.520     0.6470E-3
  3.521     0.6443E-3
  3.522     0.6416E-3
  3.523     0.6389E-3
  3.524     0.6362E-3
  3.525     0.6336E-3
  3.527     0.6309E-3
  3.528     0.6283E-3
  3.529     0.6257E-3
  3.530     0.6231E-3
  3.531     0.6205E-3
  3.532     0.6180E-3
  3.533     0.6154E-3
  3.534     0.6129E-3
  3.535     0.6104E-3
  3.537     0.6079E-3
  3.538     0.6054E-3
  3.539     0.6030E-3
  3.540     0.6005E-3
  3.541     0.5981E-3
  3.542     0.5957E-3
  3.543     0.5933E-3
  3.544     0.5909E-3
  3.546     0.5885E-3
  3.547     0.5861E-3
  3.548     0.5838E-3
  3.549     0.5814E-3
  3.550     0.5791E-3
  3.551     0.5768E-3
  3.552     0.5745E-3
  3.553     0.5722E-3
  3.554     0.5700E-3
  3.556     0.5677E-3
  3.557     0.5655E-3
  3.558     0.5633E-3
  3.559     0.5611E-3
  3.560     0.5589E-3
  3.561     0.5567E-3
  3.562     0.5545E-3
# 
# 06/19/2019 at 14:22 YPP @ br018.pvt.bridges.psc.edu [start]
# 06/19/2019 at 14:22                                 [end]
#  
# Timing   [Min/Max/Average]: 02s/02s/02s
#
# .-Input file : amp.in
# | excitons                     # [R] Excitons
# | amplitude                    # [R] Amplitude
# | BoseTemp=  0.02585     eV    # Bosonic Temperature
# | States= "1 - 20"             # Index of the BS state(s)
# | #DipWeight                   #  Weight the contribution to the exciton WFs with the dipoles
# | Degen_Step=0.1000E-4   eV    # Maximum energy separation of two degenerate states
