#  __      __   ______   __       __  _______    ______     
# |  \    /  \ /      \ |  \     /  \|       \  /      \    
#  \$$\  /  $$|  $$$$$$\| $$\   /  $$| $$$$$$$\|  $$$$$$\   
#   \$$\/  $$ | $$__| $$| $$$\ /  $$$| $$__/ $$| $$  | $$   
#    \$$  $$  | $$    $$| $$$$\  $$$$| $$    $$| $$  | $$   
#     \$$$$   | $$$$$$$$| $$\$$ $$ $$| $$$$$$$\| $$  | $$   
#     | $$    | $$  | $$| $$ \$$$| $$| $$__/ $$| $$__/ $$   
#     | $$    | $$  | $$| $$  \$ | $$| $$    $$ \$$    $$   
#      \$$     \$$   \$$ \$$      \$$ \$$$$$$$   \$$$$$$    
#                                                           
#              GPL Version 4.1.4 Revision 76                
#                        MPI Build                          
#                http://www.yambo-code.org                  
#
# BSK|Identifier              :7677
#    |Dimension               :3278
#    |Bands                   :534 - 614
#    |Exchange           [res]: yes
#    |Correlation        [res]: no
#    |Kernel`s coupling       : no
#    |Exchange           [cpl]: no
#    |Correlation        [cpl]: no
#    |W interaction is bare   : no
#    |ALDA kernel in R-space  : no
#    |RL vectors    [exchange]:55207
#    |E/h energy range    [ev]:-1.000000 - -1.000000
#    |Coupling range     [o/o]: 100.0000 -  100.0000
#
# Electron-Hole pairs that contributes to Excitonic State 12 more than 5%
#
#  E    [eV]  Amplitude
#  
  2.447     0.5759E-3
  2.448     0.5784E-3
  2.449     0.5809E-3
  2.450     0.5834E-3
  2.451     0.5859E-3
  2.452     0.5884E-3
  2.453     0.5910E-3
  2.454     0.5935E-3
  2.455     0.5961E-3
  2.456     0.5987E-3
  2.457     0.6013E-3
  2.459     0.6039E-3
  2.460     0.6066E-3
  2.461     0.6093E-3
  2.462     0.6119E-3
  2.463     0.6146E-3
  2.464     0.6173E-3
  2.465     0.6201E-3
  2.466     0.6228E-3
  2.467     0.6256E-3
  2.468     0.6284E-3
  2.469     0.6312E-3
  2.470     0.6340E-3
  2.472     0.6369E-3
  2.473     0.6397E-3
  2.474     0.6426E-3
  2.475     0.6455E-3
  2.476     0.6485E-3
  2.477     0.6514E-3
  2.478     0.6544E-3
  2.479     0.6574E-3
  2.480     0.6604E-3
  2.481     0.6634E-3
  2.482     0.6664E-3
  2.483     0.6695E-3
  2.485     0.6726E-3
  2.486     0.6757E-3
  2.487     0.6788E-3
  2.488     0.6820E-3
  2.489     0.6852E-3
  2.490     0.6884E-3
  2.491     0.6916E-3
  2.492     0.6948E-3
  2.493     0.6981E-3
  2.494     0.7014E-3
  2.495     0.7047E-3
  2.496     0.7080E-3
  2.498     0.7114E-3
  2.499     0.7148E-3
  2.500     0.7182E-3
  2.501     0.7216E-3
  2.502     0.7251E-3
  2.503     0.7286E-3
  2.504     0.7321E-3
  2.505     0.7356E-3
  2.506     0.7392E-3
  2.507     0.7428E-3
  2.508     0.7464E-3
  2.509     0.7500E-3
  2.511     0.7537E-3
  2.512     0.7574E-3
  2.513     0.7611E-3
  2.514     0.7648E-3
  2.515     0.7686E-3
  2.516     0.7724E-3
  2.517     0.7762E-3
  2.518     0.7801E-3
  2.519     0.7840E-3
  2.520     0.7879E-3
  2.521     0.7919E-3
  2.522     0.7958E-3
  2.524     0.7998E-3
  2.525     0.8039E-3
  2.526     0.8079E-3
  2.527     0.8120E-3
  2.528     0.8162E-3
  2.529     0.8203E-3
  2.530     0.8245E-3
  2.531     0.8288E-3
  2.532     0.8330E-3
  2.533     0.8373E-3
  2.534     0.8416E-3
  2.535     0.8460E-3
  2.537     0.8504E-3
  2.538     0.8548E-3
  2.539     0.8593E-3
  2.540     0.8638E-3
  2.541     0.8683E-3
  2.542     0.8729E-3
  2.543     0.8775E-3
  2.544     0.8821E-3
  2.545     0.8868E-3
  2.546     0.8915E-3
  2.547     0.8962E-3
  2.548     0.9010E-3
  2.550     0.9059E-3
  2.551     0.9107E-3
  2.552     0.9156E-3
  2.553     0.9206E-3
  2.554     0.9256E-3
  2.555     0.9306E-3
  2.556     0.9357E-3
  2.557     0.9408E-3
  2.558     0.9459E-3
  2.559     0.9511E-3
  2.560     0.9564E-3
  2.561     0.9617E-3
  2.563     0.9670E-3
  2.564     0.9724E-3
  2.565     0.9778E-3
  2.566     0.9832E-3
  2.567     0.9887E-3
  2.568     0.9943E-3
  2.569     0.9999E-3
  2.570     0.1006E-2
  2.571     0.1011E-2
  2.572     0.1017E-2
  2.573     0.1023E-2
  2.574     0.1029E-2
  2.576     0.1035E-2
  2.577     0.1040E-2
  2.578     0.1046E-2
  2.579     0.1053E-2
  2.580     0.1059E-2
  2.581     0.1065E-2
  2.582     0.1071E-2
  2.583     0.1077E-2
  2.584     0.1084E-2
  2.585     0.1090E-2
  2.586     0.1096E-2
  2.587     0.1103E-2
  2.589     0.1109E-2
  2.590     0.1116E-2
  2.591     0.1123E-2
  2.592     0.1129E-2
  2.593     0.1136E-2
  2.594     0.1143E-2
  2.595     0.1150E-2
  2.596     0.1157E-2
  2.597     0.1164E-2
  2.598     0.1171E-2
  2.599     0.1178E-2
  2.600     0.1185E-2
  2.602     0.1193E-2
  2.603     0.1200E-2
  2.604     0.1207E-2
  2.605     0.1215E-2
  2.606     0.1223E-2
  2.607     0.1230E-2
  2.608     0.1238E-2
  2.609     0.1246E-2
  2.610     0.1254E-2
  2.611     0.1262E-2
  2.612     0.1270E-2
  2.613     0.1278E-2
  2.615     0.1286E-2
  2.616     0.1294E-2
  2.617     0.1302E-2
  2.618     0.1311E-2
  2.619     0.1319E-2
  2.620     0.1328E-2
  2.621     0.1336E-2
  2.622     0.1345E-2
  2.623     0.1354E-2
  2.624     0.1363E-2
  2.625     0.1372E-2
  2.626     0.1381E-2
  2.628     0.1390E-2
  2.629     0.1399E-2
  2.630     0.1409E-2
  2.631     0.1418E-2
  2.632     0.1428E-2
  2.633     0.1438E-2
  2.634     0.1447E-2
  2.635     0.1457E-2
  2.636     0.1467E-2
  2.637     0.1477E-2
  2.638     0.1487E-2
  2.639     0.1498E-2
  2.641     0.1508E-2
  2.642     0.1518E-2
  2.643     0.1529E-2
  2.644     0.1540E-2
  2.645     0.1551E-2
  2.646     0.1561E-2
  2.647     0.1573E-2
  2.648     0.1584E-2
  2.649     0.1595E-2
  2.650     0.1606E-2
  2.651     0.1618E-2
  2.652     0.1630E-2
  2.654     0.1641E-2
  2.655     0.1653E-2
  2.656     0.1665E-2
  2.657     0.1677E-2
  2.658     0.1690E-2
  2.659     0.1702E-2
  2.660     0.1715E-2
  2.661     0.1728E-2
  2.662     0.1740E-2
  2.663     0.1753E-2
  2.664     0.1767E-2
  2.665     0.1780E-2
  2.667     0.1793E-2
  2.668     0.1807E-2
  2.669     0.1821E-2
  2.670     0.1835E-2
  2.671     0.1849E-2
  2.672     0.1863E-2
  2.673     0.1877E-2
  2.674     0.1892E-2
  2.675     0.1907E-2
  2.676     0.1922E-2
  2.677     0.1937E-2
  2.678     0.1952E-2
  2.680     0.1967E-2
  2.681     0.1983E-2
  2.682     0.1999E-2
  2.683     0.2015E-2
  2.684     0.2031E-2
  2.685     0.2048E-2
  2.686     0.2064E-2
  2.687     0.2081E-2
  2.688     0.2098E-2
  2.689     0.2115E-2
  2.690     0.2133E-2
  2.691     0.2150E-2
  2.693     0.2168E-2
  2.694     0.2186E-2
  2.695     0.2205E-2
  2.696     0.2223E-2
  2.697     0.2242E-2
  2.698     0.2261E-2
  2.699     0.2280E-2
  2.700     0.2300E-2
  2.701     0.2320E-2
  2.702     0.2340E-2
  2.703     0.2360E-2
  2.704     0.2381E-2
  2.706     0.2402E-2
  2.707     0.2423E-2
  2.708     0.2444E-2
  2.709     0.2466E-2
  2.710     0.2488E-2
  2.711     0.2510E-2
  2.712     0.2533E-2
  2.713     0.2556E-2
  2.714     0.2579E-2
  2.715     0.2602E-2
  2.716     0.2626E-2
  2.717     0.2650E-2
  2.719     0.2675E-2
  2.720     0.2700E-2
    2.7207     0.0027
    2.7218     0.0028
    2.7229     0.0028
    2.7240     0.0028
    2.7251     0.0028
    2.7261     0.0029
    2.7272     0.0029
    2.7283     0.0029
    2.7294     0.0029
    2.7305     0.0030
    2.7316     0.0030
    2.7326     0.0030
    2.7337     0.0031
    2.7348     0.0031
    2.7359     0.0031
    2.7370     0.0032
    2.7381     0.0032
    2.7391     0.0032
    2.7402     0.0032
    2.7413     0.0033
    2.7424     0.0033
    2.7435     0.0033
    2.7446     0.0034
    2.7456     0.0034
    2.7467     0.0035
    2.7478     0.0035
    2.7489     0.0035
    2.7500     0.0036
    2.7511     0.0036
    2.7521     0.0036
    2.7532     0.0037
    2.7543     0.0037
    2.7554     0.0038
    2.7565     0.0038
    2.7576     0.0038
    2.7586     0.0039
    2.7597     0.0039
    2.7608     0.0040
    2.7619     0.0040
    2.7630     0.0041
    2.7641     0.0041
    2.7651     0.0042
    2.7662     0.0042
    2.7673     0.0043
    2.7684     0.0043
    2.7695     0.0044
    2.7706     0.0044
    2.7716     0.0045
    2.7727     0.0045
    2.7738     0.0046
    2.7749     0.0046
    2.7760     0.0047
    2.7771     0.0047
    2.7781     0.0048
    2.7792     0.0049
    2.7803     0.0049
    2.7814     0.0050
    2.7825     0.0051
    2.7836     0.0051
    2.7846     0.0052
    2.7857     0.0053
    2.7868     0.0053
    2.7879     0.0054
    2.7890     0.0055
    2.7901     0.0055
    2.7911     0.0056
    2.7922     0.0057
    2.7933     0.0058
    2.7944     0.0058
    2.7955     0.0059
    2.7966     0.0060
    2.7976     0.0061
    2.7987     0.0062
    2.7998     0.0063
    2.8009     0.0064
    2.8020     0.0065
    2.8031     0.0065
    2.8041     0.0066
    2.8052     0.0067
    2.8063     0.0068
    2.8074     0.0069
    2.8085     0.0070
    2.8096     0.0072
    2.8107     0.0073
    2.8117     0.0074
    2.8128     0.0075
    2.8139     0.0076
    2.8150     0.0077
    2.8161     0.0079
    2.8172     0.0080
    2.8182     0.0081
    2.8193     0.0082
    2.8204     0.0084
    2.8215     0.0085
    2.8226     0.0087
    2.8237     0.0088
    2.8247     0.0090
    2.8258     0.0091
    2.8269     0.0093
    2.8280     0.0094
    2.8291     0.0096
    2.8302     0.0098
    2.8312     0.0100
   2.83232    0.01014
   2.83340    0.01032
   2.83449    0.01051
   2.83557    0.01071
   2.83666    0.01091
   2.83774    0.01112
   2.83882    0.01134
   2.83991    0.01156
   2.84099    0.01179
   2.84207    0.01202
   2.84316    0.01226
   2.84424    0.01251
   2.84532    0.01277
   2.84641    0.01303
   2.84749    0.01330
   2.84857    0.01358
   2.84966    0.01387
   2.85074    0.01417
   2.85182    0.01448
   2.85291    0.01481
   2.85399    0.01514
   2.85508    0.01548
   2.85616    0.01583
   2.85724    0.01620
   2.85833    0.01658
   2.85941    0.01697
   2.86049    0.01738
   2.86158    0.01780
   2.86266    0.01824
   2.86374    0.01869
   2.86483    0.01917
   2.86591    0.01966
   2.86699    0.02016
   2.86808    0.02069
   2.86916    0.02124
   2.87024    0.02182
   2.87133    0.02241
   2.87241    0.02303
   2.87350    0.02368
   2.87458    0.02436
   2.87566    0.02506
   2.87675    0.02580
   2.87783    0.02657
   2.87891    0.02737
   2.88000    0.02822
   2.88108    0.02910
   2.88216    0.03002
   2.88325    0.03099
   2.88433    0.03201
   2.88541    0.03307
   2.88650    0.03419
   2.88758    0.03538
   2.88866    0.03662
   2.88975    0.03793
   2.89083    0.03931
   2.89192    0.04077
   2.89300    0.04231
   2.89408    0.04394
   2.89517    0.04566
   2.89625    0.04749
   2.89733    0.04944
   2.89842    0.05150
   2.89950    0.05370
   2.90058    0.05603
   2.90167    0.05853
   2.90275    0.06119
   2.90383    0.06404
   2.90492    0.06709
   2.90600    0.07037
   2.90708    0.07388
   2.90817    0.07767
   2.90925    0.08175
   2.91033    0.08615
   2.91142    0.09091
   2.91250    0.09608
  2.913586   0.101685
  2.914669   0.107785
  2.915753   0.114438
  2.916836   0.121709
  2.917920   0.129671
  2.919003   0.138413
  2.920087   0.148030
  2.921170   0.158639
  2.922254   0.170371
  2.923337   0.183374
  2.924421   0.197822
  2.925504   0.213919
  2.926588   0.231888
  2.927671   0.251996
  2.928755   0.274534
  2.929838   0.299839
  2.930922   0.328284
  2.932005   0.360256
  2.933089   0.396172
  2.934173   0.436438
  2.935256   0.481381
  2.936340   0.531226
  2.937423   0.585928
  2.938507   0.645080
  2.939590   0.707705
  2.940674   0.772019
  2.941757   0.835348
  2.942841   0.894078
  2.943924   0.943881
  2.945008   0.980322
  2.946091   0.999719
  2.947175   1.000000
  2.948258   0.981271
  2.949342   0.945791
  2.950425   0.897358
  2.951509   0.840460
  2.952593   0.779372
  2.953676   0.717689
  2.954759   0.658030
  2.955843   0.602100
  2.956927   0.550883
  2.958010   0.504779
  2.959094   0.463822
  2.960177   0.427847
  2.961261   0.396542
  2.962344   0.369572
  2.963428   0.346583
  2.964511   0.327243
  2.965595   0.311268
  2.966678   0.298399
  2.967762   0.288414
  2.968845   0.281120
  2.969929   0.276330
  2.971012   0.273850
  2.972096   0.273441
  2.973180   0.274796
  2.974263   0.277502
  2.975347   0.281018
  2.976430   0.284680
  2.977514   0.287750
  2.978597   0.289521
  2.979681   0.289443
  2.980764   0.287262
  2.981848   0.283068
  2.982931   0.277266
  2.984015   0.270448
  2.985098   0.263242
  2.986182   0.256163
  2.987265   0.249525
  2.988349   0.243412
  2.989432   0.237672
  2.990516   0.231984
  2.991599   0.225946
  2.992683   0.219176
  2.993766   0.211435
  2.994850   0.202679
  2.995934   0.193069
  2.997017   0.182915
  2.998100   0.172585
  2.999184   0.162422
  3.000268   0.152698
  3.001351   0.143580
  3.002434   0.135144
  3.003518   0.127383
  3.004602   0.120242
  3.005685   0.113637
  3.006769   0.107489
  3.007852   0.101741
   3.00894    0.09636
   3.01002    0.09134
   3.01110    0.08669
   3.01219    0.08244
   3.01327    0.07859
   3.01435    0.07516
   3.01544    0.07214
   3.01652    0.06953
   3.01760    0.06732
   3.01869    0.06550
   3.01977    0.06405
   3.02085    0.06294
   3.02194    0.06215
   3.02302    0.06163
   3.02411    0.06132
   3.02519    0.06113
   3.02627    0.06097
   3.02736    0.06069
   3.02844    0.06018
   3.02952    0.05933
   3.03061    0.05806
   3.03169    0.05638
   3.03277    0.05432
   3.03386    0.05197
   3.03494    0.04945
   3.03602    0.04687
   3.03711    0.04431
   3.03819    0.04184
   3.03927    0.03951
   3.04036    0.03733
   3.04144    0.03531
   3.04252    0.03346
   3.04361    0.03177
   3.04469    0.03021
   3.04578    0.02879
   3.04686    0.02749
   3.04794    0.02629
   3.04903    0.02519
   3.05011    0.02418
   3.05119    0.02324
   3.05228    0.02237
   3.05336    0.02156
   3.05444    0.02080
   3.05553    0.02010
   3.05661    0.01944
   3.05769    0.01882
   3.05878    0.01823
   3.05986    0.01768
   3.06094    0.01716
   3.06203    0.01667
   3.06311    0.01620
   3.06420    0.01576
   3.06528    0.01534
   3.06636    0.01494
   3.06745    0.01456
   3.06853    0.01419
   3.06961    0.01384
   3.07070    0.01351
   3.07178    0.01319
   3.07286    0.01288
   3.07395    0.01258
   3.07503    0.01230
   3.07611    0.01203
   3.07720    0.01176
   3.07828    0.01151
   3.07936    0.01127
   3.08045    0.01103
   3.08153    0.01081
   3.08262    0.01059
   3.08370    0.01038
   3.08478    0.01017
    3.0859     0.0100
    3.0869     0.0098
    3.0880     0.0096
    3.0891     0.0094
    3.0902     0.0092
    3.0913     0.0091
    3.0924     0.0089
    3.0935     0.0087
    3.0945     0.0086
    3.0956     0.0084
    3.0967     0.0083
    3.0978     0.0082
    3.0989     0.0080
    3.1000     0.0079
    3.1010     0.0077
    3.1021     0.0076
    3.1032     0.0075
    3.1043     0.0074
    3.1054     0.0073
    3.1065     0.0071
    3.1075     0.0070
    3.1086     0.0069
    3.1097     0.0068
    3.1108     0.0067
    3.1119     0.0066
    3.1130     0.0065
    3.1140     0.0064
    3.1151     0.0063
    3.1162     0.0062
    3.1173     0.0061
    3.1184     0.0060
    3.1195     0.0060
    3.1205     0.0059
    3.1216     0.0058
    3.1227     0.0057
    3.1238     0.0056
    3.1249     0.0056
    3.1260     0.0055
    3.1270     0.0054
    3.1281     0.0053
    3.1292     0.0053
    3.1303     0.0052
    3.1314     0.0051
    3.1325     0.0051
    3.1335     0.0050
    3.1346     0.0049
    3.1357     0.0049
    3.1368     0.0048
    3.1379     0.0047
    3.1390     0.0047
    3.1400     0.0046
    3.1411     0.0046
    3.1422     0.0045
    3.1433     0.0045
    3.1444     0.0044
    3.1455     0.0044
    3.1465     0.0043
    3.1476     0.0042
    3.1487     0.0042
    3.1498     0.0041
    3.1509     0.0041
    3.1520     0.0041
    3.1530     0.0040
    3.1541     0.0040
    3.1552     0.0039
    3.1563     0.0039
    3.1574     0.0038
    3.1585     0.0038
    3.1595     0.0037
    3.1606     0.0037
    3.1617     0.0037
    3.1628     0.0036
    3.1639     0.0036
    3.1650     0.0035
    3.1660     0.0035
    3.1671     0.0035
    3.1682     0.0034
    3.1693     0.0034
    3.1704     0.0034
    3.1715     0.0033
    3.1725     0.0033
    3.1736     0.0033
    3.1747     0.0032
    3.1758     0.0032
  3.177     0.3159E-2
  3.178     0.3127E-2
  3.179     0.3096E-2
  3.180     0.3065E-2
  3.181     0.3034E-2
  3.182     0.3004E-2
  3.183     0.2975E-2
  3.184     0.2946E-2
  3.186     0.2917E-2
  3.187     0.2889E-2
  3.188     0.2861E-2
  3.189     0.2834E-2
  3.190     0.2807E-2
  3.191     0.2780E-2
  3.192     0.2754E-2
  3.193     0.2728E-2
  3.194     0.2703E-2
  3.195     0.2677E-2
  3.196     0.2653E-2
  3.197     0.2628E-2
  3.199     0.2604E-2
  3.200     0.2580E-2
  3.201     0.2557E-2
  3.202     0.2534E-2
  3.203     0.2511E-2
  3.204     0.2489E-2
  3.205     0.2466E-2
  3.206     0.2445E-2
  3.207     0.2423E-2
  3.208     0.2402E-2
  3.209     0.2381E-2
  3.210     0.2360E-2
  3.212     0.2339E-2
  3.213     0.2319E-2
  3.214     0.2299E-2
  3.215     0.2280E-2
  3.216     0.2260E-2
  3.217     0.2241E-2
  3.218     0.2222E-2
  3.219     0.2203E-2
  3.220     0.2185E-2
  3.221     0.2167E-2
  3.222     0.2149E-2
  3.223     0.2131E-2
  3.225     0.2113E-2
  3.226     0.2096E-2
  3.227     0.2079E-2
  3.228     0.2062E-2
  3.229     0.2045E-2
  3.230     0.2029E-2
  3.231     0.2013E-2
  3.232     0.1997E-2
  3.233     0.1981E-2
  3.234     0.1965E-2
  3.235     0.1949E-2
  3.236     0.1934E-2
  3.238     0.1919E-2
  3.239     0.1904E-2
  3.240     0.1889E-2
  3.241     0.1875E-2
  3.242     0.1860E-2
  3.243     0.1846E-2
  3.244     0.1832E-2
  3.245     0.1818E-2
  3.246     0.1804E-2
  3.247     0.1790E-2
  3.248     0.1777E-2
  3.249     0.1763E-2
  3.251     0.1750E-2
  3.252     0.1737E-2
  3.253     0.1724E-2
  3.254     0.1712E-2
  3.255     0.1699E-2
  3.256     0.1687E-2
  3.257     0.1674E-2
  3.258     0.1662E-2
  3.259     0.1650E-2
  3.260     0.1638E-2
  3.261     0.1626E-2
  3.262     0.1615E-2
  3.264     0.1603E-2
  3.265     0.1592E-2
  3.266     0.1580E-2
  3.267     0.1569E-2
  3.268     0.1558E-2
  3.269     0.1547E-2
  3.270     0.1536E-2
  3.271     0.1526E-2
  3.272     0.1515E-2
  3.273     0.1505E-2
  3.274     0.1494E-2
  3.275     0.1484E-2
  3.277     0.1474E-2
  3.278     0.1464E-2
  3.279     0.1454E-2
  3.280     0.1444E-2
  3.281     0.1434E-2
  3.282     0.1424E-2
  3.283     0.1415E-2
  3.284     0.1405E-2
  3.285     0.1396E-2
  3.286     0.1387E-2
  3.287     0.1378E-2
  3.288     0.1369E-2
  3.290     0.1360E-2
  3.291     0.1351E-2
  3.292     0.1342E-2
  3.293     0.1333E-2
  3.294     0.1324E-2
  3.295     0.1316E-2
  3.296     0.1307E-2
  3.297     0.1299E-2
  3.298     0.1291E-2
  3.299     0.1282E-2
  3.300     0.1274E-2
  3.301     0.1266E-2
  3.303     0.1258E-2
  3.304     0.1250E-2
  3.305     0.1242E-2
  3.306     0.1235E-2
  3.307     0.1227E-2
  3.308     0.1219E-2
  3.309     0.1212E-2
  3.310     0.1204E-2
  3.311     0.1197E-2
  3.312     0.1189E-2
  3.313     0.1182E-2
  3.314     0.1175E-2
  3.316     0.1168E-2
  3.317     0.1161E-2
  3.318     0.1154E-2
  3.319     0.1147E-2
  3.320     0.1140E-2
  3.321     0.1133E-2
  3.322     0.1126E-2
  3.323     0.1120E-2
  3.324     0.1113E-2
  3.325     0.1106E-2
  3.326     0.1100E-2
  3.327     0.1093E-2
  3.329     0.1087E-2
  3.330     0.1081E-2
  3.331     0.1074E-2
  3.332     0.1068E-2
  3.333     0.1062E-2
  3.334     0.1056E-2
  3.335     0.1050E-2
  3.336     0.1043E-2
  3.337     0.1038E-2
  3.338     0.1032E-2
  3.339     0.1026E-2
  3.340     0.1020E-2
  3.342     0.1014E-2
  3.343     0.1008E-2
  3.344     0.1003E-2
  3.345     0.9970E-3
  3.346     0.9915E-3
  3.347     0.9859E-3
  3.348     0.9804E-3
  3.349     0.9750E-3
  3.350     0.9696E-3
  3.351     0.9642E-3
  3.352     0.9589E-3
  3.353     0.9536E-3
  3.355     0.9484E-3
  3.356     0.9432E-3
  3.357     0.9381E-3
  3.358     0.9330E-3
  3.359     0.9279E-3
  3.360     0.9229E-3
  3.361     0.9179E-3
  3.362     0.9130E-3
  3.363     0.9081E-3
  3.364     0.9032E-3
  3.365     0.8984E-3
  3.366     0.8937E-3
  3.368     0.8889E-3
  3.369     0.8842E-3
  3.370     0.8795E-3
  3.371     0.8749E-3
  3.372     0.8703E-3
  3.373     0.8658E-3
  3.374     0.8613E-3
  3.375     0.8568E-3
  3.376     0.8523E-3
  3.377     0.8479E-3
  3.378     0.8435E-3
  3.380     0.8392E-3
  3.381     0.8349E-3
  3.382     0.8306E-3
  3.383     0.8263E-3
  3.384     0.8221E-3
  3.385     0.8179E-3
  3.386     0.8138E-3
  3.387     0.8097E-3
  3.388     0.8056E-3
  3.389     0.8015E-3
  3.390     0.7975E-3
  3.391     0.7935E-3
  3.393     0.7896E-3
  3.394     0.7856E-3
  3.395     0.7817E-3
  3.396     0.7778E-3
  3.397     0.7740E-3
  3.398     0.7702E-3
  3.399     0.7664E-3
  3.400     0.7626E-3
  3.401     0.7589E-3
  3.402     0.7552E-3
  3.403     0.7515E-3
  3.404     0.7478E-3
  3.406     0.7442E-3
  3.407     0.7406E-3
  3.408     0.7370E-3
  3.409     0.7335E-3
  3.410     0.7300E-3
  3.411     0.7265E-3
  3.412     0.7230E-3
  3.413     0.7195E-3
  3.414     0.7161E-3
  3.415     0.7127E-3
  3.416     0.7094E-3
  3.417     0.7060E-3
  3.419     0.7027E-3
  3.420     0.6994E-3
  3.421     0.6961E-3
  3.422     0.6928E-3
  3.423     0.6896E-3
  3.424     0.6864E-3
  3.425     0.6832E-3
  3.426     0.6800E-3
  3.427     0.6769E-3
  3.428     0.6738E-3
  3.429     0.6707E-3
  3.430     0.6676E-3
  3.432     0.6645E-3
  3.433     0.6615E-3
  3.434     0.6585E-3
  3.435     0.6555E-3
  3.436     0.6525E-3
  3.437     0.6495E-3
  3.438     0.6466E-3
  3.439     0.6437E-3
  3.440     0.6408E-3
  3.441     0.6379E-3
  3.442     0.6351E-3
  3.443     0.6322E-3
  3.445     0.6294E-3
  3.446     0.6266E-3
  3.447     0.6238E-3
  3.448     0.6211E-3
  3.449     0.6183E-3
  3.450     0.6156E-3
  3.451     0.6129E-3
  3.452     0.6102E-3
  3.453     0.6075E-3
  3.454     0.6049E-3
  3.455     0.6022E-3
  3.456     0.5996E-3
  3.458     0.5970E-3
  3.459     0.5944E-3
  3.460     0.5919E-3
  3.461     0.5893E-3
  3.462     0.5868E-3
  3.463     0.5842E-3
  3.464     0.5817E-3
  3.465     0.5793E-3
  3.466     0.5768E-3
  3.467     0.5743E-3
  3.468     0.5719E-3
  3.469     0.5695E-3
  3.471     0.5671E-3
  3.472     0.5647E-3
  3.473     0.5623E-3
  3.474     0.5599E-3
  3.475     0.5576E-3
  3.476     0.5552E-3
  3.477     0.5529E-3
  3.478     0.5506E-3
  3.479     0.5483E-3
  3.480     0.5460E-3
  3.481     0.5438E-3
  3.482     0.5415E-3
  3.484     0.5393E-3
  3.485     0.5371E-3
  3.486     0.5349E-3
  3.487     0.5327E-3
  3.488     0.5305E-3
  3.489     0.5283E-3
  3.490     0.5262E-3
  3.491     0.5240E-3
  3.492     0.5219E-3
  3.493     0.5198E-3
  3.494     0.5177E-3
  3.495     0.5156E-3
  3.497     0.5135E-3
  3.498     0.5115E-3
  3.499     0.5094E-3
  3.500     0.5074E-3
  3.501     0.5054E-3
  3.502     0.5033E-3
  3.503     0.5013E-3
  3.504     0.4994E-3
  3.505     0.4974E-3
  3.506     0.4954E-3
  3.507     0.4935E-3
  3.508     0.4915E-3
  3.510     0.4896E-3
  3.511     0.4877E-3
  3.512     0.4858E-3
  3.513     0.4839E-3
  3.514     0.4820E-3
  3.515     0.4801E-3
  3.516     0.4782E-3
  3.517     0.4764E-3
  3.518     0.4745E-3
  3.519     0.4727E-3
  3.520     0.4709E-3
  3.521     0.4691E-3
  3.523     0.4673E-3
  3.524     0.4655E-3
  3.525     0.4637E-3
  3.526     0.4619E-3
  3.527     0.4602E-3
  3.528     0.4584E-3
  3.529     0.4567E-3
# 
# 06/19/2019 at 14:22 YPP @ br018.pvt.bridges.psc.edu [start]
# 06/19/2019 at 14:22                                 [end]
#  
# Timing   [Min/Max/Average]: 02s/02s/02s
#
# .-Input file : amp.in
# | excitons                     # [R] Excitons
# | amplitude                    # [R] Amplitude
# | BoseTemp=  0.02585     eV    # Bosonic Temperature
# | States= "1 - 20"             # Index of the BS state(s)
# | #DipWeight                   #  Weight the contribution to the exciton WFs with the dipoles
# | Degen_Step=0.1000E-4   eV    # Maximum energy separation of two degenerate states
