#  __      __   ______   __       __  _______    ______     
# |  \    /  \ /      \ |  \     /  \|       \  /      \    
#  \$$\  /  $$|  $$$$$$\| $$\   /  $$| $$$$$$$\|  $$$$$$\   
#   \$$\/  $$ | $$__| $$| $$$\ /  $$$| $$__/ $$| $$  | $$   
#    \$$  $$  | $$    $$| $$$$\  $$$$| $$    $$| $$  | $$   
#     \$$$$   | $$$$$$$$| $$\$$ $$ $$| $$$$$$$\| $$  | $$   
#     | $$    | $$  | $$| $$ \$$$| $$| $$__/ $$| $$__/ $$   
#     | $$    | $$  | $$| $$  \$ | $$| $$    $$ \$$    $$   
#      \$$     \$$   \$$ \$$      \$$ \$$$$$$$   \$$$$$$    
#                                                           
#              GPL Version 4.1.4 Revision 76                
#                        MPI Build                          
#                http://www.yambo-code.org                  
#
# BSK|Identifier              :7677
#    |Dimension               :3278
#    |Bands                   :534 - 614
#    |Exchange           [res]: yes
#    |Correlation        [res]: no
#    |Kernel`s coupling       : no
#    |Exchange           [cpl]: no
#    |Correlation        [cpl]: no
#    |W interaction is bare   : no
#    |ALDA kernel in R-space  : no
#    |RL vectors    [exchange]:55207
#    |E/h energy range    [ev]:-1.000000 - -1.000000
#    |Coupling range     [o/o]: 100.0000 -  100.0000
#
# Electron-Hole pairs that contributes to Excitonic State 17 more than 5%
#
#  E    [eV]  Amplitude
#  
  2.458     0.4115E-3
  2.459     0.4131E-3
  2.460     0.4147E-3
  2.461     0.4163E-3
  2.462     0.4179E-3
  2.463     0.4196E-3
  2.464     0.4212E-3
  2.465     0.4229E-3
  2.466     0.4246E-3
  2.467     0.4263E-3
  2.468     0.4280E-3
  2.469     0.4297E-3
  2.470     0.4314E-3
  2.472     0.4331E-3
  2.473     0.4349E-3
  2.474     0.4366E-3
  2.475     0.4384E-3
  2.476     0.4401E-3
  2.477     0.4419E-3
  2.478     0.4437E-3
  2.479     0.4455E-3
  2.480     0.4473E-3
  2.481     0.4491E-3
  2.482     0.4510E-3
  2.483     0.4528E-3
  2.484     0.4547E-3
  2.485     0.4565E-3
  2.486     0.4584E-3
  2.487     0.4603E-3
  2.488     0.4622E-3
  2.489     0.4641E-3
  2.490     0.4660E-3
  2.491     0.4680E-3
  2.492     0.4699E-3
  2.493     0.4719E-3
  2.495     0.4739E-3
  2.496     0.4759E-3
  2.497     0.4779E-3
  2.498     0.4799E-3
  2.499     0.4819E-3
  2.500     0.4839E-3
  2.501     0.4860E-3
  2.502     0.4880E-3
  2.503     0.4901E-3
  2.504     0.4922E-3
  2.505     0.4943E-3
  2.506     0.4964E-3
  2.507     0.4986E-3
  2.508     0.5007E-3
  2.509     0.5029E-3
  2.510     0.5050E-3
  2.511     0.5072E-3
  2.512     0.5094E-3
  2.513     0.5116E-3
  2.514     0.5139E-3
  2.515     0.5161E-3
  2.516     0.5184E-3
  2.518     0.5207E-3
  2.519     0.5229E-3
  2.520     0.5253E-3
  2.521     0.5276E-3
  2.522     0.5299E-3
  2.523     0.5323E-3
  2.524     0.5346E-3
  2.525     0.5370E-3
  2.526     0.5394E-3
  2.527     0.5418E-3
  2.528     0.5442E-3
  2.529     0.5467E-3
  2.530     0.5492E-3
  2.531     0.5516E-3
  2.532     0.5541E-3
  2.533     0.5566E-3
  2.534     0.5592E-3
  2.535     0.5617E-3
  2.536     0.5643E-3
  2.537     0.5669E-3
  2.538     0.5695E-3
  2.540     0.5721E-3
  2.541     0.5747E-3
  2.542     0.5774E-3
  2.543     0.5801E-3
  2.544     0.5828E-3
  2.545     0.5855E-3
  2.546     0.5882E-3
  2.547     0.5909E-3
  2.548     0.5937E-3
  2.549     0.5965E-3
  2.550     0.5993E-3
  2.551     0.6021E-3
  2.552     0.6050E-3
  2.553     0.6079E-3
  2.554     0.6107E-3
  2.555     0.6137E-3
  2.556     0.6166E-3
  2.557     0.6195E-3
  2.558     0.6225E-3
  2.559     0.6255E-3
  2.560     0.6285E-3
  2.561     0.6316E-3
  2.563     0.6346E-3
  2.564     0.6377E-3
  2.565     0.6408E-3
  2.566     0.6439E-3
  2.567     0.6471E-3
  2.568     0.6503E-3
  2.569     0.6534E-3
  2.570     0.6567E-3
  2.571     0.6599E-3
  2.572     0.6632E-3
  2.573     0.6665E-3
  2.574     0.6698E-3
  2.575     0.6731E-3
  2.576     0.6765E-3
  2.577     0.6799E-3
  2.578     0.6833E-3
  2.579     0.6868E-3
  2.580     0.6902E-3
  2.581     0.6937E-3
  2.582     0.6972E-3
  2.583     0.7008E-3
  2.584     0.7044E-3
  2.586     0.7080E-3
  2.587     0.7116E-3
  2.588     0.7153E-3
  2.589     0.7190E-3
  2.590     0.7227E-3
  2.591     0.7264E-3
  2.592     0.7302E-3
  2.593     0.7340E-3
  2.594     0.7378E-3
  2.595     0.7417E-3
  2.596     0.7456E-3
  2.597     0.7495E-3
  2.598     0.7535E-3
  2.599     0.7575E-3
  2.600     0.7615E-3
  2.601     0.7655E-3
  2.602     0.7696E-3
  2.603     0.7737E-3
  2.604     0.7779E-3
  2.605     0.7821E-3
  2.606     0.7863E-3
  2.608     0.7905E-3
  2.609     0.7948E-3
  2.610     0.7991E-3
  2.611     0.8035E-3
  2.612     0.8079E-3
  2.613     0.8123E-3
  2.614     0.8168E-3
  2.615     0.8213E-3
  2.616     0.8258E-3
  2.617     0.8304E-3
  2.618     0.8350E-3
  2.619     0.8397E-3
  2.620     0.8444E-3
  2.621     0.8491E-3
  2.622     0.8539E-3
  2.623     0.8587E-3
  2.624     0.8635E-3
  2.625     0.8684E-3
  2.626     0.8734E-3
  2.627     0.8784E-3
  2.628     0.8834E-3
  2.629     0.8884E-3
  2.631     0.8935E-3
  2.632     0.8987E-3
  2.633     0.9039E-3
  2.634     0.9091E-3
  2.635     0.9144E-3
  2.636     0.9198E-3
  2.637     0.9251E-3
  2.638     0.9306E-3
  2.639     0.9360E-3
  2.640     0.9416E-3
  2.641     0.9471E-3
  2.642     0.9528E-3
  2.643     0.9584E-3
  2.644     0.9642E-3
  2.645     0.9699E-3
  2.646     0.9758E-3
  2.647     0.9817E-3
  2.648     0.9876E-3
  2.649     0.9936E-3
  2.650     0.9996E-3
  2.651     0.1006E-2
  2.652     0.1012E-2
  2.654     0.1018E-2
  2.655     0.1024E-2
  2.656     0.1031E-2
  2.657     0.1037E-2
  2.658     0.1044E-2
  2.659     0.1050E-2
  2.660     0.1057E-2
  2.661     0.1063E-2
  2.662     0.1070E-2
  2.663     0.1077E-2
  2.664     0.1083E-2
  2.665     0.1090E-2
  2.666     0.1097E-2
  2.667     0.1104E-2
  2.668     0.1111E-2
  2.669     0.1119E-2
  2.670     0.1126E-2
  2.671     0.1133E-2
  2.672     0.1140E-2
  2.673     0.1148E-2
  2.674     0.1155E-2
  2.675     0.1163E-2
  2.677     0.1171E-2
  2.678     0.1178E-2
  2.679     0.1186E-2
  2.680     0.1194E-2
  2.681     0.1202E-2
  2.682     0.1210E-2
  2.683     0.1218E-2
  2.684     0.1226E-2
  2.685     0.1235E-2
  2.686     0.1243E-2
  2.687     0.1252E-2
  2.688     0.1260E-2
  2.689     0.1269E-2
  2.690     0.1277E-2
  2.691     0.1286E-2
  2.692     0.1295E-2
  2.693     0.1304E-2
  2.694     0.1313E-2
  2.695     0.1322E-2
  2.696     0.1332E-2
  2.697     0.1341E-2
  2.699     0.1351E-2
  2.700     0.1360E-2
  2.701     0.1370E-2
  2.702     0.1380E-2
  2.703     0.1390E-2
  2.704     0.1400E-2
  2.705     0.1410E-2
  2.706     0.1420E-2
  2.707     0.1430E-2
  2.708     0.1441E-2
  2.709     0.1451E-2
  2.710     0.1462E-2
  2.711     0.1473E-2
  2.712     0.1484E-2
  2.713     0.1495E-2
  2.714     0.1506E-2
  2.715     0.1517E-2
  2.716     0.1529E-2
  2.717     0.1540E-2
  2.718     0.1552E-2
  2.719     0.1564E-2
  2.720     0.1576E-2
  2.722     0.1588E-2
  2.723     0.1600E-2
  2.724     0.1612E-2
  2.725     0.1625E-2
  2.726     0.1637E-2
  2.727     0.1650E-2
  2.728     0.1663E-2
  2.729     0.1676E-2
  2.730     0.1689E-2
  2.731     0.1703E-2
  2.732     0.1716E-2
  2.733     0.1730E-2
  2.734     0.1744E-2
  2.735     0.1758E-2
  2.736     0.1772E-2
  2.737     0.1787E-2
  2.738     0.1801E-2
  2.739     0.1816E-2
  2.740     0.1831E-2
  2.741     0.1846E-2
  2.742     0.1862E-2
  2.743     0.1877E-2
  2.745     0.1893E-2
  2.746     0.1909E-2
  2.747     0.1925E-2
  2.748     0.1941E-2
  2.749     0.1958E-2
  2.750     0.1975E-2
  2.751     0.1992E-2
  2.752     0.2009E-2
  2.753     0.2026E-2
  2.754     0.2044E-2
  2.755     0.2062E-2
  2.756     0.2080E-2
  2.757     0.2098E-2
  2.758     0.2117E-2
  2.759     0.2136E-2
  2.760     0.2155E-2
  2.761     0.2174E-2
  2.762     0.2194E-2
  2.763     0.2214E-2
  2.764     0.2234E-2
  2.765     0.2254E-2
  2.767     0.2275E-2
  2.768     0.2296E-2
  2.769     0.2317E-2
  2.770     0.2339E-2
  2.771     0.2361E-2
  2.772     0.2383E-2
  2.773     0.2405E-2
  2.774     0.2428E-2
  2.775     0.2451E-2
  2.776     0.2475E-2
  2.777     0.2499E-2
  2.778     0.2523E-2
  2.779     0.2547E-2
  2.780     0.2572E-2
  2.781     0.2597E-2
  2.782     0.2623E-2
  2.783     0.2649E-2
  2.784     0.2675E-2
  2.785     0.2702E-2
  2.786     0.2729E-2
  2.787     0.2757E-2
  2.788     0.2785E-2
    2.7895     0.0028
    2.7906     0.0028
    2.7916     0.0029
    2.7927     0.0029
    2.7937     0.0029
    2.7947     0.0030
    2.7958     0.0030
    2.7968     0.0030
    2.7979     0.0031
    2.7989     0.0031
    2.8000     0.0031
    2.8010     0.0032
    2.8021     0.0032
    2.8031     0.0032
    2.8042     0.0033
    2.8052     0.0033
    2.8063     0.0033
    2.8073     0.0034
    2.8083     0.0034
    2.8094     0.0034
    2.8104     0.0035
    2.8115     0.0035
    2.8125     0.0036
    2.8136     0.0036
    2.8146     0.0037
    2.8157     0.0037
    2.8167     0.0037
    2.8178     0.0038
    2.8188     0.0038
    2.8199     0.0039
    2.8209     0.0039
    2.8219     0.0040
    2.8230     0.0040
    2.8240     0.0041
    2.8251     0.0041
    2.8261     0.0042
    2.8272     0.0042
    2.8282     0.0043
    2.8293     0.0043
    2.8303     0.0044
    2.8314     0.0044
    2.8324     0.0045
    2.8334     0.0046
    2.8345     0.0046
    2.8355     0.0047
    2.8366     0.0047
    2.8376     0.0048
    2.8387     0.0049
    2.8397     0.0049
    2.8408     0.0050
    2.8418     0.0051
    2.8429     0.0051
    2.8439     0.0052
    2.8450     0.0053
    2.8460     0.0054
    2.8470     0.0054
    2.8481     0.0055
    2.8491     0.0056
    2.8502     0.0057
    2.8512     0.0058
    2.8523     0.0058
    2.8533     0.0059
    2.8544     0.0060
    2.8554     0.0061
    2.8565     0.0062
    2.8575     0.0063
    2.8586     0.0064
    2.8596     0.0065
    2.8606     0.0066
    2.8617     0.0067
    2.8627     0.0068
    2.8638     0.0069
    2.8648     0.0070
    2.8659     0.0071
    2.8669     0.0073
    2.8680     0.0074
    2.8690     0.0075
    2.8701     0.0076
    2.8711     0.0078
    2.8722     0.0079
    2.8732     0.0080
    2.8742     0.0082
    2.8753     0.0083
    2.8763     0.0085
    2.8774     0.0086
    2.8784     0.0088
    2.8795     0.0089
    2.8805     0.0091
    2.8816     0.0093
    2.8826     0.0094
    2.8837     0.0096
    2.8847     0.0098
   2.88575    0.01001
   2.88680    0.01020
   2.88784    0.01040
   2.88889    0.01061
   2.88994    0.01083
   2.89098    0.01105
   2.89203    0.01128
   2.89307    0.01151
   2.89412    0.01176
   2.89517    0.01201
   2.89621    0.01227
   2.89726    0.01253
   2.89830    0.01281
   2.89935    0.01310
   2.90040    0.01339
   2.90144    0.01370
   2.90249    0.01402
   2.90353    0.01434
   2.90458    0.01468
   2.90563    0.01504
   2.90667    0.01540
   2.90772    0.01578
   2.90876    0.01618
   2.90981    0.01659
   2.91086    0.01701
   2.91190    0.01745
   2.91295    0.01791
   2.91400    0.01839
   2.91504    0.01889
   2.91609    0.01941
   2.91713    0.01996
   2.91818    0.02052
   2.91923    0.02112
   2.92027    0.02174
   2.92132    0.02238
   2.92236    0.02306
   2.92341    0.02378
   2.92446    0.02452
   2.92550    0.02531
   2.92655    0.02613
   2.92759    0.02700
   2.92864    0.02791
   2.92969    0.02888
   2.93073    0.02990
   2.93178    0.03098
   2.93282    0.03212
   2.93387    0.03333
   2.93492    0.03462
   2.93596    0.03599
   2.93701    0.03745
   2.93805    0.03902
   2.93910    0.04069
   2.94015    0.04248
   2.94119    0.04440
   2.94224    0.04647
   2.94328    0.04871
   2.94433    0.05112
   2.94538    0.05372
   2.94642    0.05654
   2.94747    0.05958
   2.94851    0.06286
   2.94956    0.06639
   2.95061    0.07016
   2.95165    0.07415
   2.95270    0.07832
   2.95374    0.08262
   2.95479    0.08698
   2.95584    0.09130
   2.95688    0.09551
   2.95793    0.09956
  2.958975   0.103455
  2.960021   0.107256
  2.961067   0.111068
  2.962113   0.115033
  2.963159   0.119299
  2.964205   0.124015
  2.965251   0.129314
  2.966297   0.135314
  2.967343   0.142125
  2.968389   0.149853
  2.969435   0.158603
  2.970481   0.168493
  2.971528   0.179652
  2.972574   0.192224
  2.973619   0.206383
  2.974666   0.222330
  2.975712   0.240291
  2.976758   0.260525
  2.977804   0.283338
  2.978850   0.309058
  2.979896   0.338063
  2.980942   0.370737
  2.981988   0.407492
  2.983034   0.448691
  2.984080   0.494646
  2.985126   0.545475
  2.986172   0.601054
  2.987218   0.660781
  2.988264   0.723475
  2.989310   0.787116
  2.990356   0.848833
  2.991402   0.904905
  2.992448   0.951218
  2.993494   0.983855
  2.994540   1.000000
  2.995586   0.998598
  2.996633   0.980637
  2.997679   0.948821
  2.998724   0.906786
  2.999770   0.858283
  3.000817   0.806457
  3.001863   0.753609
  3.002909   0.701140
  3.003955   0.649858
  3.005001   0.600187
  3.006047   0.552476
  3.007093   0.507033
  3.008139   0.464206
  3.009185   0.424265
  3.010231   0.387409
  3.011277   0.353717
  3.012323   0.323138
  3.013369   0.295531
  3.014415   0.270704
  3.015461   0.248430
  3.016507   0.228458
  3.017553   0.210555
  3.018599   0.194492
  3.019645   0.180058
  3.020692   0.167067
  3.021738   0.155355
  3.022784   0.144770
  3.023829   0.135184
  3.024876   0.126481
  3.025922   0.118563
  3.026968   0.111342
  3.028014   0.104744
   3.02906    0.09870
   3.03011    0.09315
   3.03115    0.08805
   3.03220    0.08334
   3.03324    0.07900
   3.03429    0.07498
   3.03534    0.07126
   3.03638    0.06780
   3.03743    0.06458
   3.03847    0.06159
   3.03952    0.05879
   3.04057    0.05619
   3.04161    0.05374
   3.04266    0.05146
   3.04370    0.04931
   3.04475    0.04729
   3.04580    0.04540
   3.04684    0.04361
   3.04789    0.04193
   3.04893    0.04034
   3.04998    0.03884
   3.05103    0.03743
   3.05207    0.03608
   3.05312    0.03481
   3.05416    0.03360
   3.05521    0.03246
   3.05626    0.03137
   3.05730    0.03034
   3.05835    0.02935
   3.05940    0.02842
   3.06044    0.02752
   3.06149    0.02667
   3.06253    0.02586
   3.06358    0.02508
   3.06463    0.02434
   3.06567    0.02363
   3.06672    0.02295
   3.06776    0.02230
   3.06881    0.02167
   3.06986    0.02108
   3.07090    0.02050
   3.07195    0.01995
   3.07299    0.01942
   3.07404    0.01892
   3.07509    0.01843
   3.07613    0.01796
   3.07718    0.01751
   3.07822    0.01707
   3.07927    0.01665
   3.08032    0.01625
   3.08136    0.01586
   3.08241    0.01548
   3.08345    0.01512
   3.08450    0.01477
   3.08555    0.01443
   3.08659    0.01411
   3.08764    0.01379
   3.08868    0.01348
   3.08973    0.01319
   3.09078    0.01290
   3.09182    0.01263
   3.09287    0.01236
   3.09391    0.01210
   3.09496    0.01185
   3.09601    0.01161
   3.09705    0.01137
   3.09810    0.01114
   3.09914    0.01092
   3.10019    0.01070
   3.10124    0.01049
   3.10228    0.01029
   3.10333    0.01009
    3.1044     0.0099
    3.1054     0.0097
    3.1065     0.0095
    3.1075     0.0094
    3.1086     0.0092
    3.1096     0.0090
    3.1107     0.0089
    3.1117     0.0087
    3.1127     0.0085
    3.1138     0.0084
    3.1148     0.0083
    3.1159     0.0081
    3.1169     0.0080
    3.1180     0.0078
    3.1190     0.0077
    3.1201     0.0076
    3.1211     0.0075
    3.1222     0.0073
    3.1232     0.0072
    3.1242     0.0071
    3.1253     0.0070
    3.1263     0.0069
    3.1274     0.0068
    3.1284     0.0067
    3.1295     0.0066
    3.1305     0.0065
    3.1316     0.0064
    3.1326     0.0063
    3.1337     0.0062
    3.1347     0.0061
    3.1358     0.0060
    3.1368     0.0059
    3.1378     0.0058
    3.1389     0.0057
    3.1399     0.0056
    3.1410     0.0056
    3.1420     0.0055
    3.1431     0.0054
    3.1441     0.0053
    3.1452     0.0053
    3.1462     0.0052
    3.1473     0.0051
    3.1483     0.0050
    3.1494     0.0050
    3.1504     0.0049
    3.1514     0.0048
    3.1525     0.0048
    3.1535     0.0047
    3.1546     0.0047
    3.1556     0.0046
    3.1567     0.0045
    3.1577     0.0045
    3.1588     0.0044
    3.1598     0.0044
    3.1609     0.0043
    3.1619     0.0043
    3.1630     0.0042
    3.1640     0.0042
    3.1650     0.0041
    3.1661     0.0041
    3.1671     0.0040
    3.1682     0.0040
    3.1692     0.0039
    3.1703     0.0039
    3.1713     0.0038
    3.1724     0.0038
    3.1734     0.0037
    3.1745     0.0037
    3.1755     0.0036
    3.1766     0.0036
    3.1776     0.0036
    3.1786     0.0035
    3.1797     0.0035
    3.1807     0.0034
    3.1818     0.0034
    3.1828     0.0034
    3.1839     0.0033
    3.1849     0.0033
    3.1860     0.0033
    3.1870     0.0032
  3.188     0.3182E-2
  3.189     0.3148E-2
  3.190     0.3115E-2
  3.191     0.3081E-2
  3.192     0.3049E-2
  3.193     0.3017E-2
  3.194     0.2985E-2
  3.195     0.2954E-2
  3.196     0.2924E-2
  3.197     0.2893E-2
  3.199     0.2864E-2
  3.200     0.2835E-2
  3.201     0.2806E-2
  3.202     0.2777E-2
  3.203     0.2750E-2
  3.204     0.2722E-2
  3.205     0.2695E-2
  3.206     0.2668E-2
  3.207     0.2642E-2
  3.208     0.2616E-2
  3.209     0.2591E-2
  3.210     0.2566E-2
  3.211     0.2541E-2
  3.212     0.2516E-2
  3.213     0.2492E-2
  3.214     0.2469E-2
  3.215     0.2445E-2
  3.216     0.2422E-2
  3.217     0.2399E-2
  3.218     0.2377E-2
  3.219     0.2355E-2
  3.220     0.2333E-2
  3.222     0.2312E-2
  3.223     0.2290E-2
  3.224     0.2270E-2
  3.225     0.2249E-2
  3.226     0.2229E-2
  3.227     0.2209E-2
  3.228     0.2189E-2
  3.229     0.2169E-2
  3.230     0.2150E-2
  3.231     0.2131E-2
  3.232     0.2112E-2
  3.233     0.2094E-2
  3.234     0.2075E-2
  3.235     0.2057E-2
  3.236     0.2040E-2
  3.237     0.2022E-2
  3.238     0.2005E-2
  3.239     0.1987E-2
  3.240     0.1971E-2
  3.241     0.1954E-2
  3.242     0.1937E-2
  3.243     0.1921E-2
  3.245     0.1905E-2
  3.246     0.1889E-2
  3.247     0.1874E-2
  3.248     0.1858E-2
  3.249     0.1843E-2
  3.250     0.1828E-2
  3.251     0.1813E-2
  3.252     0.1798E-2
  3.253     0.1783E-2
  3.254     0.1769E-2
  3.255     0.1755E-2
  3.256     0.1741E-2
  3.257     0.1727E-2
  3.258     0.1713E-2
  3.259     0.1700E-2
  3.260     0.1686E-2
  3.261     0.1673E-2
  3.262     0.1660E-2
  3.263     0.1647E-2
  3.264     0.1634E-2
  3.265     0.1622E-2
  3.267     0.1609E-2
  3.268     0.1597E-2
  3.269     0.1585E-2
  3.270     0.1573E-2
  3.271     0.1561E-2
  3.272     0.1549E-2
  3.273     0.1537E-2
  3.274     0.1526E-2
  3.275     0.1515E-2
  3.276     0.1503E-2
  3.277     0.1492E-2
  3.278     0.1481E-2
  3.279     0.1470E-2
  3.280     0.1460E-2
  3.281     0.1449E-2
  3.282     0.1438E-2
  3.283     0.1428E-2
  3.284     0.1418E-2
  3.285     0.1407E-2
  3.286     0.1397E-2
  3.287     0.1387E-2
  3.288     0.1377E-2
  3.290     0.1368E-2
  3.291     0.1358E-2
  3.292     0.1348E-2
  3.293     0.1339E-2
  3.294     0.1330E-2
  3.295     0.1320E-2
  3.296     0.1311E-2
  3.297     0.1302E-2
  3.298     0.1293E-2
  3.299     0.1284E-2
  3.300     0.1276E-2
  3.301     0.1267E-2
  3.302     0.1258E-2
  3.303     0.1250E-2
  3.304     0.1241E-2
  3.305     0.1233E-2
  3.306     0.1225E-2
  3.307     0.1216E-2
  3.308     0.1208E-2
  3.309     0.1200E-2
  3.310     0.1192E-2
  3.311     0.1184E-2
  3.313     0.1177E-2
  3.314     0.1169E-2
  3.315     0.1161E-2
  3.316     0.1154E-2
  3.317     0.1146E-2
  3.318     0.1139E-2
  3.319     0.1132E-2
  3.320     0.1124E-2
  3.321     0.1117E-2
  3.322     0.1110E-2
  3.323     0.1103E-2
  3.324     0.1096E-2
  3.325     0.1089E-2
  3.326     0.1082E-2
  3.327     0.1075E-2
  3.328     0.1068E-2
  3.329     0.1062E-2
  3.330     0.1055E-2
  3.331     0.1049E-2
  3.332     0.1042E-2
  3.333     0.1036E-2
  3.335     0.1029E-2
  3.336     0.1023E-2
  3.337     0.1017E-2
  3.338     0.1011E-2
  3.339     0.1004E-2
  3.340     0.9984E-3
  3.341     0.9923E-3
  3.342     0.9864E-3
  3.343     0.9804E-3
  3.344     0.9746E-3
  3.345     0.9687E-3
  3.346     0.9630E-3
  3.347     0.9573E-3
  3.348     0.9516E-3
  3.349     0.9460E-3
  3.350     0.9404E-3
  3.351     0.9349E-3
  3.352     0.9294E-3
  3.353     0.9240E-3
  3.354     0.9187E-3
  3.355     0.9133E-3
  3.356     0.9081E-3
  3.358     0.9028E-3
  3.359     0.8976E-3
  3.360     0.8925E-3
  3.361     0.8874E-3
  3.362     0.8823E-3
  3.363     0.8773E-3
  3.364     0.8724E-3
  3.365     0.8674E-3
  3.366     0.8625E-3
  3.367     0.8577E-3
  3.368     0.8529E-3
  3.369     0.8481E-3
  3.370     0.8434E-3
  3.371     0.8387E-3
  3.372     0.8341E-3
  3.373     0.8295E-3
  3.374     0.8249E-3
  3.375     0.8204E-3
  3.376     0.8159E-3
  3.377     0.8114E-3
  3.378     0.8070E-3
  3.379     0.8026E-3
  3.381     0.7983E-3
  3.382     0.7940E-3
  3.383     0.7897E-3
  3.384     0.7854E-3
  3.385     0.7812E-3
  3.386     0.7770E-3
  3.387     0.7729E-3
  3.388     0.7688E-3
  3.389     0.7647E-3
  3.390     0.7607E-3
  3.391     0.7567E-3
  3.392     0.7527E-3
  3.393     0.7487E-3
  3.394     0.7448E-3
  3.395     0.7409E-3
  3.396     0.7371E-3
  3.397     0.7332E-3
  3.398     0.7294E-3
  3.399     0.7257E-3
  3.400     0.7219E-3
  3.401     0.7182E-3
  3.402     0.7145E-3
  3.404     0.7109E-3
  3.405     0.7073E-3
  3.406     0.7037E-3
  3.407     0.7001E-3
  3.408     0.6965E-3
  3.409     0.6930E-3
  3.410     0.6895E-3
  3.411     0.6861E-3
  3.412     0.6826E-3
  3.413     0.6792E-3
  3.414     0.6758E-3
  3.415     0.6725E-3
  3.416     0.6691E-3
  3.417     0.6658E-3
  3.418     0.6625E-3
  3.419     0.6593E-3
  3.420     0.6560E-3
  3.421     0.6528E-3
  3.422     0.6496E-3
  3.423     0.6465E-3
  3.424     0.6433E-3
  3.426     0.6402E-3
  3.427     0.6371E-3
  3.428     0.6340E-3
  3.429     0.6310E-3
  3.430     0.6279E-3
  3.431     0.6249E-3
  3.432     0.6219E-3
  3.433     0.6190E-3
  3.434     0.6160E-3
  3.435     0.6131E-3
  3.436     0.6102E-3
  3.437     0.6073E-3
  3.438     0.6044E-3
  3.439     0.6016E-3
  3.440     0.5988E-3
  3.441     0.5960E-3
  3.442     0.5932E-3
  3.443     0.5904E-3
  3.444     0.5877E-3
  3.445     0.5849E-3
  3.446     0.5822E-3
  3.447     0.5795E-3
  3.449     0.5769E-3
  3.450     0.5742E-3
  3.451     0.5716E-3
  3.452     0.5690E-3
  3.453     0.5664E-3
  3.454     0.5638E-3
  3.455     0.5612E-3
  3.456     0.5587E-3
  3.457     0.5562E-3
  3.458     0.5536E-3
  3.459     0.5512E-3
  3.460     0.5487E-3
  3.461     0.5462E-3
  3.462     0.5438E-3
  3.463     0.5413E-3
  3.464     0.5389E-3
  3.465     0.5365E-3
  3.466     0.5342E-3
  3.467     0.5318E-3
  3.468     0.5295E-3
  3.469     0.5271E-3
  3.470     0.5248E-3
  3.472     0.5225E-3
  3.473     0.5202E-3
  3.474     0.5179E-3
  3.475     0.5157E-3
  3.476     0.5134E-3
  3.477     0.5112E-3
  3.478     0.5090E-3
  3.479     0.5068E-3
  3.480     0.5046E-3
  3.481     0.5025E-3
  3.482     0.5003E-3
  3.483     0.4982E-3
  3.484     0.4960E-3
  3.485     0.4939E-3
  3.486     0.4918E-3
  3.487     0.4897E-3
  3.488     0.4876E-3
  3.489     0.4856E-3
  3.490     0.4835E-3
  3.491     0.4815E-3
  3.492     0.4795E-3
  3.494     0.4775E-3
  3.495     0.4755E-3
  3.496     0.4735E-3
  3.497     0.4715E-3
  3.498     0.4696E-3
  3.499     0.4676E-3
  3.500     0.4657E-3
  3.501     0.4637E-3
  3.502     0.4618E-3
  3.503     0.4599E-3
# 
# 06/19/2019 at 14:22 YPP @ br018.pvt.bridges.psc.edu [start]
# 06/19/2019 at 14:22                                 [end]
#  
# Timing   [Min/Max/Average]: 02s/02s/02s
#
# .-Input file : amp.in
# | excitons                     # [R] Excitons
# | amplitude                    # [R] Amplitude
# | BoseTemp=  0.02585     eV    # Bosonic Temperature
# | States= "1 - 20"             # Index of the BS state(s)
# | #DipWeight                   #  Weight the contribution to the exciton WFs with the dipoles
# | Degen_Step=0.1000E-4   eV    # Maximum energy separation of two degenerate states
