#  __      __   ______   __       __  _______    ______     
# |  \    /  \ /      \ |  \     /  \|       \  /      \    
#  \$$\  /  $$|  $$$$$$\| $$\   /  $$| $$$$$$$\|  $$$$$$\   
#   \$$\/  $$ | $$__| $$| $$$\ /  $$$| $$__/ $$| $$  | $$   
#    \$$  $$  | $$    $$| $$$$\  $$$$| $$    $$| $$  | $$   
#     \$$$$   | $$$$$$$$| $$\$$ $$ $$| $$$$$$$\| $$  | $$   
#     | $$    | $$  | $$| $$ \$$$| $$| $$__/ $$| $$__/ $$   
#     | $$    | $$  | $$| $$  \$ | $$| $$    $$ \$$    $$   
#      \$$     \$$   \$$ \$$      \$$ \$$$$$$$   \$$$$$$    
#                                                           
#              GPL Version 4.1.4 Revision 76                
#                        MPI Build                          
#                http://www.yambo-code.org                  
#
# BSK|Identifier              :7677
#    |Dimension               :3278
#    |Bands                   :534 - 614
#    |Exchange           [res]: yes
#    |Correlation        [res]: no
#    |Kernel`s coupling       : no
#    |Exchange           [cpl]: no
#    |Correlation        [cpl]: no
#    |W interaction is bare   : no
#    |ALDA kernel in R-space  : no
#    |RL vectors    [exchange]:55207
#    |E/h energy range    [ev]:-1.000000 - -1.000000
#    |Coupling range     [o/o]: 100.0000 -  100.0000
#
# Electron-Hole pairs that contributes to Excitonic State 18 more than 5%
#
#  E    [eV]  Amplitude
#  
  2.447     0.4650E-3
  2.448     0.4669E-3
  2.449     0.4688E-3
  2.450     0.4707E-3
  2.451     0.4726E-3
  2.452     0.4745E-3
  2.453     0.4764E-3
  2.454     0.4783E-3
  2.455     0.4802E-3
  2.456     0.4822E-3
  2.458     0.4842E-3
  2.459     0.4861E-3
  2.460     0.4881E-3
  2.461     0.4901E-3
  2.462     0.4921E-3
  2.463     0.4942E-3
  2.464     0.4962E-3
  2.465     0.4983E-3
  2.466     0.5003E-3
  2.467     0.5024E-3
  2.468     0.5045E-3
  2.470     0.5066E-3
  2.471     0.5087E-3
  2.472     0.5108E-3
  2.473     0.5130E-3
  2.474     0.5151E-3
  2.475     0.5173E-3
  2.476     0.5195E-3
  2.477     0.5217E-3
  2.478     0.5239E-3
  2.479     0.5261E-3
  2.480     0.5283E-3
  2.482     0.5306E-3
  2.483     0.5329E-3
  2.484     0.5352E-3
  2.485     0.5374E-3
  2.486     0.5398E-3
  2.487     0.5421E-3
  2.488     0.5444E-3
  2.489     0.5468E-3
  2.490     0.5492E-3
  2.491     0.5515E-3
  2.492     0.5539E-3
  2.494     0.5564E-3
  2.495     0.5588E-3
  2.496     0.5613E-3
  2.497     0.5637E-3
  2.498     0.5662E-3
  2.499     0.5687E-3
  2.500     0.5712E-3
  2.501     0.5738E-3
  2.502     0.5763E-3
  2.503     0.5789E-3
  2.504     0.5815E-3
  2.506     0.5841E-3
  2.507     0.5867E-3
  2.508     0.5893E-3
  2.509     0.5920E-3
  2.510     0.5946E-3
  2.511     0.5973E-3
  2.512     0.6000E-3
  2.513     0.6028E-3
  2.514     0.6055E-3
  2.515     0.6083E-3
  2.516     0.6111E-3
  2.518     0.6139E-3
  2.519     0.6167E-3
  2.520     0.6195E-3
  2.521     0.6224E-3
  2.522     0.6253E-3
  2.523     0.6282E-3
  2.524     0.6311E-3
  2.525     0.6340E-3
  2.526     0.6370E-3
  2.527     0.6400E-3
  2.528     0.6430E-3
  2.530     0.6460E-3
  2.531     0.6491E-3
  2.532     0.6521E-3
  2.533     0.6552E-3
  2.534     0.6583E-3
  2.535     0.6615E-3
  2.536     0.6646E-3
  2.537     0.6678E-3
  2.538     0.6710E-3
  2.539     0.6743E-3
  2.540     0.6775E-3
  2.542     0.6808E-3
  2.543     0.6841E-3
  2.544     0.6874E-3
  2.545     0.6907E-3
  2.546     0.6941E-3
  2.547     0.6975E-3
  2.548     0.7009E-3
  2.549     0.7044E-3
  2.550     0.7078E-3
  2.551     0.7113E-3
  2.552     0.7149E-3
  2.554     0.7184E-3
  2.555     0.7220E-3
  2.556     0.7256E-3
  2.557     0.7292E-3
  2.558     0.7329E-3
  2.559     0.7366E-3
  2.560     0.7403E-3
  2.561     0.7440E-3
  2.562     0.7478E-3
  2.563     0.7516E-3
  2.564     0.7554E-3
  2.566     0.7593E-3
  2.567     0.7631E-3
  2.568     0.7671E-3
  2.569     0.7710E-3
  2.570     0.7750E-3
  2.571     0.7790E-3
  2.572     0.7830E-3
  2.573     0.7871E-3
  2.574     0.7912E-3
  2.575     0.7953E-3
  2.576     0.7995E-3
  2.578     0.8037E-3
  2.579     0.8079E-3
  2.580     0.8122E-3
  2.581     0.8165E-3
  2.582     0.8208E-3
  2.583     0.8252E-3
  2.584     0.8296E-3
  2.585     0.8340E-3
  2.586     0.8385E-3
  2.587     0.8430E-3
  2.588     0.8476E-3
  2.590     0.8521E-3
  2.591     0.8568E-3
  2.592     0.8614E-3
  2.593     0.8661E-3
  2.594     0.8708E-3
  2.595     0.8756E-3
  2.596     0.8804E-3
  2.597     0.8853E-3
  2.598     0.8902E-3
  2.599     0.8951E-3
  2.600     0.9001E-3
  2.602     0.9051E-3
  2.603     0.9102E-3
  2.604     0.9153E-3
  2.605     0.9204E-3
  2.606     0.9256E-3
  2.607     0.9308E-3
  2.608     0.9361E-3
  2.609     0.9414E-3
  2.610     0.9468E-3
  2.611     0.9522E-3
  2.612     0.9577E-3
  2.614     0.9632E-3
  2.615     0.9687E-3
  2.616     0.9743E-3
  2.617     0.9800E-3
  2.618     0.9857E-3
  2.619     0.9915E-3
  2.620     0.9973E-3
  2.621     0.1003E-2
  2.622     0.1009E-2
  2.623     0.1015E-2
  2.624     0.1021E-2
  2.626     0.1027E-2
  2.627     0.1033E-2
  2.628     0.1039E-2
  2.629     0.1046E-2
  2.630     0.1052E-2
  2.631     0.1058E-2
  2.632     0.1065E-2
  2.633     0.1071E-2
  2.634     0.1078E-2
  2.635     0.1084E-2
  2.636     0.1091E-2
  2.638     0.1097E-2
  2.639     0.1104E-2
  2.640     0.1111E-2
  2.641     0.1118E-2
  2.642     0.1125E-2
  2.643     0.1132E-2
  2.644     0.1139E-2
  2.645     0.1146E-2
  2.646     0.1153E-2
  2.647     0.1161E-2
  2.648     0.1168E-2
  2.650     0.1175E-2
  2.651     0.1183E-2
  2.652     0.1190E-2
  2.653     0.1198E-2
  2.654     0.1206E-2
  2.655     0.1214E-2
  2.656     0.1221E-2
  2.657     0.1229E-2
  2.658     0.1237E-2
  2.659     0.1246E-2
  2.660     0.1254E-2
  2.662     0.1262E-2
  2.663     0.1270E-2
  2.664     0.1279E-2
  2.665     0.1287E-2
  2.666     0.1296E-2
  2.667     0.1305E-2
  2.668     0.1313E-2
  2.669     0.1322E-2
  2.670     0.1331E-2
  2.671     0.1340E-2
  2.672     0.1349E-2
  2.674     0.1358E-2
  2.675     0.1368E-2
  2.676     0.1377E-2
  2.677     0.1387E-2
  2.678     0.1396E-2
  2.679     0.1406E-2
  2.680     0.1416E-2
  2.681     0.1426E-2
  2.682     0.1436E-2
  2.683     0.1446E-2
  2.685     0.1456E-2
  2.686     0.1466E-2
  2.687     0.1477E-2
  2.688     0.1487E-2
  2.689     0.1498E-2
  2.690     0.1509E-2
  2.691     0.1520E-2
  2.692     0.1531E-2
  2.693     0.1542E-2
  2.694     0.1553E-2
  2.695     0.1565E-2
  2.697     0.1576E-2
  2.698     0.1588E-2
  2.699     0.1600E-2
  2.700     0.1612E-2
  2.701     0.1624E-2
  2.702     0.1636E-2
  2.703     0.1648E-2
  2.704     0.1661E-2
  2.705     0.1673E-2
  2.706     0.1686E-2
  2.707     0.1699E-2
  2.709     0.1712E-2
  2.710     0.1725E-2
  2.711     0.1738E-2
  2.712     0.1752E-2
  2.713     0.1766E-2
  2.714     0.1779E-2
  2.715     0.1793E-2
  2.716     0.1808E-2
  2.717     0.1822E-2
  2.718     0.1836E-2
  2.719     0.1851E-2
  2.721     0.1866E-2
  2.722     0.1881E-2
  2.723     0.1896E-2
  2.724     0.1911E-2
  2.725     0.1927E-2
  2.726     0.1943E-2
  2.727     0.1959E-2
  2.728     0.1975E-2
  2.729     0.1991E-2
  2.730     0.2008E-2
  2.731     0.2025E-2
  2.733     0.2042E-2
  2.734     0.2059E-2
  2.735     0.2076E-2
  2.736     0.2094E-2
  2.737     0.2112E-2
  2.738     0.2130E-2
  2.739     0.2148E-2
  2.740     0.2167E-2
  2.741     0.2186E-2
  2.742     0.2205E-2
  2.743     0.2224E-2
  2.745     0.2244E-2
  2.746     0.2263E-2
  2.747     0.2283E-2
  2.748     0.2304E-2
  2.749     0.2324E-2
  2.750     0.2345E-2
  2.751     0.2367E-2
  2.752     0.2388E-2
  2.753     0.2410E-2
  2.754     0.2432E-2
  2.755     0.2454E-2
  2.757     0.2477E-2
  2.758     0.2500E-2
  2.759     0.2523E-2
  2.760     0.2547E-2
  2.761     0.2571E-2
  2.762     0.2595E-2
  2.763     0.2620E-2
  2.764     0.2645E-2
  2.765     0.2670E-2
  2.766     0.2696E-2
  2.767     0.2722E-2
  2.769     0.2749E-2
    2.7696     0.0028
    2.7707     0.0028
    2.7718     0.0028
    2.7729     0.0029
    2.7740     0.0029
    2.7751     0.0029
    2.7762     0.0029
    2.7773     0.0030
    2.7784     0.0030
    2.7794     0.0030
    2.7805     0.0031
    2.7816     0.0031
    2.7827     0.0031
    2.7838     0.0032
    2.7849     0.0032
    2.7860     0.0032
    2.7871     0.0033
    2.7882     0.0033
    2.7893     0.0033
    2.7904     0.0034
    2.7915     0.0034
    2.7925     0.0034
    2.7936     0.0035
    2.7947     0.0035
    2.7958     0.0036
    2.7969     0.0036
    2.7980     0.0036
    2.7991     0.0037
    2.8002     0.0037
    2.8013     0.0038
    2.8024     0.0038
    2.8035     0.0039
    2.8045     0.0039
    2.8056     0.0039
    2.8067     0.0040
    2.8078     0.0040
    2.8089     0.0041
    2.8100     0.0041
    2.8111     0.0042
    2.8122     0.0042
    2.8133     0.0043
    2.8144     0.0043
    2.8155     0.0044
    2.8166     0.0045
    2.8176     0.0045
    2.8187     0.0046
    2.8198     0.0046
    2.8209     0.0047
    2.8220     0.0047
    2.8231     0.0048
    2.8242     0.0049
    2.8253     0.0049
    2.8264     0.0050
    2.8275     0.0051
    2.8286     0.0051
    2.8296     0.0052
    2.8307     0.0053
    2.8318     0.0053
    2.8329     0.0054
    2.8340     0.0055
    2.8351     0.0056
    2.8362     0.0056
    2.8373     0.0057
    2.8384     0.0058
    2.8395     0.0059
    2.8406     0.0060
    2.8417     0.0061
    2.8427     0.0061
    2.8438     0.0062
    2.8449     0.0063
    2.8460     0.0064
    2.8471     0.0065
    2.8482     0.0066
    2.8493     0.0067
    2.8504     0.0068
    2.8515     0.0069
    2.8526     0.0070
    2.8537     0.0072
    2.8548     0.0073
    2.8558     0.0074
    2.8569     0.0075
    2.8580     0.0076
    2.8591     0.0078
    2.8602     0.0079
    2.8613     0.0080
    2.8624     0.0082
    2.8635     0.0083
    2.8646     0.0084
    2.8657     0.0086
    2.8668     0.0087
    2.8678     0.0089
    2.8689     0.0090
    2.8700     0.0092
    2.8711     0.0094
    2.8722     0.0095
    2.8733     0.0097
    2.8744     0.0099
   2.87549    0.01009
   2.87658    0.01029
   2.87767    0.01049
   2.87876    0.01069
   2.87985    0.01090
   2.88094    0.01112
   2.88203    0.01134
   2.88313    0.01157
   2.88422    0.01181
   2.88531    0.01206
   2.88640    0.01231
   2.88749    0.01257
   2.88858    0.01284
   2.88967    0.01312
   2.89076    0.01341
   2.89186    0.01371
   2.89295    0.01402
   2.89404    0.01434
   2.89513    0.01467
   2.89622    0.01501
   2.89731    0.01537
   2.89840    0.01573
   2.89950    0.01612
   2.90059    0.01651
   2.90168    0.01693
   2.90277    0.01736
   2.90386    0.01780
   2.90495    0.01827
   2.90604    0.01875
   2.90713    0.01925
   2.90823    0.01978
   2.90932    0.02033
   2.91041    0.02090
   2.91150    0.02150
   2.91259    0.02212
   2.91368    0.02278
   2.91477    0.02346
   2.91587    0.02419
   2.91696    0.02494
   2.91805    0.02574
   2.91914    0.02658
   2.92023    0.02746
   2.92132    0.02840
   2.92241    0.02939
   2.92351    0.03043
   2.92460    0.03154
   2.92569    0.03272
   2.92678    0.03397
   2.92787    0.03531
   2.92896    0.03674
   2.93005    0.03827
   2.93114    0.03991
   2.93224    0.04166
   2.93333    0.04355
   2.93442    0.04559
   2.93551    0.04777
   2.93660    0.05012
   2.93769    0.05263
   2.93878    0.05531
   2.93988    0.05814
   2.94097    0.06110
   2.94206    0.06416
   2.94315    0.06726
   2.94424    0.07036
   2.94533    0.07338
   2.94642    0.07631
   2.94751    0.07914
   2.94861    0.08189
   2.94970    0.08463
   2.95079    0.08745
   2.95188    0.09044
   2.95297    0.09370
   2.95406    0.09732
  2.955154   0.101366
  2.956245   0.105907
  2.957337   0.111004
  2.958428   0.116720
  2.959519   0.123117
  2.960611   0.130266
  2.961702   0.138247
  2.962793   0.147147
  2.963885   0.157071
  2.964976   0.168132
  2.966068   0.180463
  2.967159   0.194205
  2.968250   0.209515
  2.969342   0.226553
  2.970433   0.245477
  2.971524   0.266435
  2.972616   0.289539
  2.973707   0.314854
  2.974798   0.342381
  2.975890   0.372050
  2.976981   0.403740
  2.978072   0.437334
  2.979164   0.472792
  2.980255   0.510226
  2.981346   0.549961
  2.982438   0.592450
  2.983529   0.638120
  2.984620   0.687218
  2.985712   0.739467
  2.986803   0.793848
  2.987894   0.848386
  2.988986   0.900082
  2.990077   0.945074
  2.991168   0.979102
  2.992260   0.998283
  2.993351   1.000000
  2.994442   0.983597
  2.995534   0.950553
  2.996625   0.904081
  2.997717   0.848319
  2.998808   0.787473
  2.999899   0.725191
  3.000991   0.664237
  3.002082   0.606457
  3.003173   0.552904
  3.004265   0.504029
  3.005356   0.459876
  3.006447   0.420244
  3.007539   0.384812
  3.008630   0.353220
  3.009722   0.325114
  3.010813   0.300164
  3.011904   0.278078
  3.012995   0.258580
  3.014087   0.241433
  3.015178   0.226432
  3.016269   0.213378
  3.017361   0.202106
  3.018452   0.192471
  3.019543   0.184343
  3.020635   0.177603
  3.021726   0.172137
  3.022817   0.167825
  3.023909   0.164533
  3.025000   0.162100
  3.026092   0.160339
  3.027183   0.159030
  3.028274   0.157943
  3.029366   0.156859
  3.030457   0.155595
  3.031548   0.154025
  3.032640   0.152066
  3.033731   0.149663
  3.034822   0.146755
  3.035914   0.143262
  3.037005   0.139103
  3.038096   0.134229
  3.039188   0.128658
  3.040279   0.122494
  3.041370   0.115912
  3.042462   0.109128
  3.043553   0.102352
   3.04464    0.09576
   3.04574    0.08948
   3.04683    0.08360
   3.04792    0.07816
   3.04901    0.07316
   3.05010    0.06859
   3.05119    0.06442
   3.05228    0.06063
   3.05338    0.05718
   3.05447    0.05403
   3.05556    0.05116
   3.05665    0.04854
   3.05774    0.04613
   3.05883    0.04392
   3.05992    0.04188
   3.06101    0.04000
   3.06211    0.03825
   3.06320    0.03664
   3.06429    0.03513
   3.06538    0.03373
   3.06647    0.03242
   3.06756    0.03120
   3.06865    0.03005
   3.06975    0.02897
   3.07084    0.02795
   3.07193    0.02700
   3.07302    0.02609
   3.07411    0.02524
   3.07520    0.02443
   3.07629    0.02366
   3.07738    0.02293
   3.07848    0.02224
   3.07957    0.02158
   3.08066    0.02095
   3.08175    0.02035
   3.08284    0.01978
   3.08393    0.01923
   3.08502    0.01871
   3.08612    0.01821
   3.08721    0.01773
   3.08830    0.01728
   3.08939    0.01684
   3.09048    0.01641
   3.09157    0.01601
   3.09266    0.01562
   3.09376    0.01524
   3.09485    0.01488
   3.09594    0.01453
   3.09703    0.01420
   3.09812    0.01387
   3.09921    0.01356
   3.10030    0.01326
   3.10139    0.01297
   3.10249    0.01269
   3.10358    0.01242
   3.10467    0.01216
   3.10576    0.01190
   3.10685    0.01166
   3.10794    0.01142
   3.10903    0.01119
   3.11013    0.01097
   3.11122    0.01075
   3.11231    0.01054
   3.11340    0.01034
   3.11449    0.01014
    3.1156     0.0099
    3.1167     0.0098
    3.1178     0.0096
    3.1189     0.0094
    3.1199     0.0092
    3.1210     0.0091
    3.1221     0.0089
    3.1232     0.0087
    3.1243     0.0086
    3.1254     0.0084
    3.1265     0.0083
    3.1276     0.0082
    3.1287     0.0080
    3.1298     0.0079
    3.1309     0.0078
    3.1320     0.0076
    3.1330     0.0075
    3.1341     0.0074
    3.1352     0.0073
    3.1363     0.0071
    3.1374     0.0070
    3.1385     0.0069
    3.1396     0.0068
    3.1407     0.0067
    3.1418     0.0066
    3.1429     0.0065
    3.1440     0.0064
    3.1450     0.0063
    3.1461     0.0062
    3.1472     0.0061
    3.1483     0.0060
    3.1494     0.0060
    3.1505     0.0059
    3.1516     0.0058
    3.1527     0.0057
    3.1538     0.0056
    3.1549     0.0055
    3.1560     0.0055
    3.1571     0.0054
    3.1581     0.0053
    3.1592     0.0053
    3.1603     0.0052
    3.1614     0.0051
    3.1625     0.0050
    3.1636     0.0050
    3.1647     0.0049
    3.1658     0.0048
    3.1669     0.0048
    3.1680     0.0047
    3.1691     0.0047
    3.1701     0.0046
    3.1712     0.0045
    3.1723     0.0045
    3.1734     0.0044
    3.1745     0.0044
    3.1756     0.0043
    3.1767     0.0043
    3.1778     0.0042
    3.1789     0.0042
    3.1800     0.0041
    3.1811     0.0041
    3.1822     0.0040
    3.1832     0.0040
    3.1843     0.0039
    3.1854     0.0039
    3.1865     0.0038
    3.1876     0.0038
    3.1887     0.0038
    3.1898     0.0037
    3.1909     0.0037
    3.1920     0.0036
    3.1931     0.0036
    3.1942     0.0035
    3.1953     0.0035
    3.1963     0.0035
    3.1974     0.0034
    3.1985     0.0034
    3.1996     0.0034
    3.2007     0.0033
    3.2018     0.0033
    3.2029     0.0033
    3.2040     0.0032
  3.205     0.3186E-2
  3.206     0.3153E-2
  3.207     0.3120E-2
  3.208     0.3088E-2
  3.209     0.3056E-2
  3.211     0.3025E-2
  3.212     0.2994E-2
  3.213     0.2964E-2
  3.214     0.2934E-2
  3.215     0.2905E-2
  3.216     0.2876E-2
  3.217     0.2847E-2
  3.218     0.2819E-2
  3.219     0.2792E-2
  3.220     0.2764E-2
  3.221     0.2738E-2
  3.223     0.2711E-2
  3.224     0.2685E-2
  3.225     0.2660E-2
  3.226     0.2634E-2
  3.227     0.2609E-2
  3.228     0.2585E-2
  3.229     0.2560E-2
  3.230     0.2537E-2
  3.231     0.2513E-2
  3.232     0.2490E-2
  3.233     0.2467E-2
  3.235     0.2444E-2
  3.236     0.2422E-2
  3.237     0.2400E-2
  3.238     0.2378E-2
  3.239     0.2357E-2
  3.240     0.2336E-2
  3.241     0.2315E-2
  3.242     0.2294E-2
  3.243     0.2274E-2
  3.244     0.2254E-2
  3.245     0.2234E-2
  3.247     0.2215E-2
  3.248     0.2196E-2
  3.249     0.2177E-2
  3.250     0.2158E-2
  3.251     0.2139E-2
  3.252     0.2121E-2
  3.253     0.2103E-2
  3.254     0.2085E-2
  3.255     0.2068E-2
  3.256     0.2051E-2
  3.257     0.2033E-2
  3.259     0.2016E-2
  3.260     0.2000E-2
  3.261     0.1983E-2
  3.262     0.1967E-2
  3.263     0.1951E-2
  3.264     0.1935E-2
  3.265     0.1919E-2
  3.266     0.1904E-2
  3.267     0.1889E-2
  3.268     0.1873E-2
  3.269     0.1858E-2
  3.271     0.1844E-2
  3.272     0.1829E-2
  3.273     0.1815E-2
  3.274     0.1800E-2
  3.275     0.1786E-2
  3.276     0.1772E-2
  3.277     0.1759E-2
  3.278     0.1745E-2
  3.279     0.1732E-2
  3.280     0.1718E-2
  3.281     0.1705E-2
  3.283     0.1692E-2
  3.284     0.1679E-2
  3.285     0.1667E-2
  3.286     0.1654E-2
  3.287     0.1642E-2
  3.288     0.1629E-2
  3.289     0.1617E-2
  3.290     0.1605E-2
  3.291     0.1594E-2
  3.292     0.1582E-2
  3.293     0.1570E-2
  3.295     0.1559E-2
  3.296     0.1547E-2
  3.297     0.1536E-2
  3.298     0.1525E-2
  3.299     0.1514E-2
  3.300     0.1503E-2
  3.301     0.1492E-2
  3.302     0.1482E-2
  3.303     0.1471E-2
  3.304     0.1461E-2
  3.305     0.1451E-2
  3.307     0.1440E-2
  3.308     0.1430E-2
  3.309     0.1420E-2
  3.310     0.1411E-2
  3.311     0.1401E-2
  3.312     0.1391E-2
  3.313     0.1382E-2
  3.314     0.1372E-2
  3.315     0.1363E-2
  3.316     0.1353E-2
  3.317     0.1344E-2
  3.319     0.1335E-2
  3.320     0.1326E-2
  3.321     0.1317E-2
  3.322     0.1308E-2
  3.323     0.1300E-2
  3.324     0.1291E-2
  3.325     0.1283E-2
  3.326     0.1274E-2
  3.327     0.1266E-2
  3.328     0.1257E-2
  3.329     0.1249E-2
  3.331     0.1241E-2
  3.332     0.1233E-2
  3.333     0.1225E-2
  3.334     0.1217E-2
  3.335     0.1209E-2
  3.336     0.1202E-2
  3.337     0.1194E-2
  3.338     0.1186E-2
  3.339     0.1179E-2
  3.340     0.1171E-2
  3.341     0.1164E-2
  3.343     0.1157E-2
  3.344     0.1149E-2
  3.345     0.1142E-2
  3.346     0.1135E-2
  3.347     0.1128E-2
  3.348     0.1121E-2
  3.349     0.1114E-2
  3.350     0.1107E-2
  3.351     0.1100E-2
  3.352     0.1094E-2
  3.353     0.1087E-2
  3.355     0.1080E-2
  3.356     0.1074E-2
  3.357     0.1067E-2
  3.358     0.1061E-2
  3.359     0.1055E-2
  3.360     0.1048E-2
  3.361     0.1042E-2
  3.362     0.1036E-2
  3.363     0.1030E-2
  3.364     0.1024E-2
  3.366     0.1018E-2
  3.367     0.1012E-2
  3.368     0.1006E-2
  3.369     0.9997E-3
  3.370     0.9939E-3
  3.371     0.9881E-3
  3.372     0.9824E-3
  3.373     0.9767E-3
  3.374     0.9711E-3
  3.375     0.9655E-3
  3.376     0.9600E-3
  3.378     0.9545E-3
  3.379     0.9491E-3
  3.380     0.9437E-3
  3.381     0.9383E-3
  3.382     0.9330E-3
  3.383     0.9278E-3
  3.384     0.9226E-3
  3.385     0.9174E-3
  3.386     0.9123E-3
  3.387     0.9072E-3
  3.388     0.9022E-3
  3.390     0.8972E-3
  3.391     0.8922E-3
  3.392     0.8873E-3
  3.393     0.8824E-3
  3.394     0.8776E-3
  3.395     0.8728E-3
  3.396     0.8681E-3
  3.397     0.8634E-3
  3.398     0.8587E-3
  3.399     0.8540E-3
  3.400     0.8494E-3
  3.402     0.8449E-3
  3.403     0.8403E-3
  3.404     0.8359E-3
  3.405     0.8314E-3
  3.406     0.8270E-3
  3.407     0.8226E-3
  3.408     0.8182E-3
  3.409     0.8139E-3
  3.410     0.8097E-3
  3.411     0.8054E-3
  3.412     0.8012E-3
  3.414     0.7970E-3
  3.415     0.7929E-3
  3.416     0.7888E-3
  3.417     0.7847E-3
  3.418     0.7806E-3
  3.419     0.7766E-3
  3.420     0.7726E-3
  3.421     0.7686E-3
  3.422     0.7647E-3
  3.423     0.7608E-3
  3.424     0.7570E-3
  3.426     0.7531E-3
  3.427     0.7493E-3
  3.428     0.7455E-3
  3.429     0.7418E-3
  3.430     0.7380E-3
  3.431     0.7343E-3
  3.432     0.7307E-3
  3.433     0.7270E-3
  3.434     0.7234E-3
  3.435     0.7198E-3
  3.436     0.7163E-3
  3.438     0.7127E-3
  3.439     0.7092E-3
  3.440     0.7058E-3
  3.441     0.7023E-3
  3.442     0.6989E-3
  3.443     0.6955E-3
  3.444     0.6921E-3
  3.445     0.6887E-3
  3.446     0.6854E-3
  3.447     0.6821E-3
  3.448     0.6788E-3
  3.450     0.6755E-3
  3.451     0.6723E-3
  3.452     0.6691E-3
  3.453     0.6659E-3
  3.454     0.6627E-3
  3.455     0.6596E-3
  3.456     0.6565E-3
  3.457     0.6534E-3
  3.458     0.6503E-3
  3.459     0.6472E-3
  3.460     0.6442E-3
  3.462     0.6412E-3
  3.463     0.6382E-3
  3.464     0.6352E-3
  3.465     0.6323E-3
  3.466     0.6293E-3
  3.467     0.6264E-3
  3.468     0.6235E-3
  3.469     0.6207E-3
  3.470     0.6178E-3
  3.471     0.6150E-3
  3.472     0.6122E-3
  3.474     0.6094E-3
  3.475     0.6066E-3
  3.476     0.6038E-3
  3.477     0.6011E-3
  3.478     0.5984E-3
  3.479     0.5957E-3
  3.480     0.5930E-3
  3.481     0.5903E-3
  3.482     0.5877E-3
  3.483     0.5851E-3
  3.484     0.5825E-3
  3.486     0.5799E-3
  3.487     0.5773E-3
  3.488     0.5747E-3
  3.489     0.5722E-3
  3.490     0.5697E-3
  3.491     0.5672E-3
  3.492     0.5647E-3
  3.493     0.5622E-3
  3.494     0.5597E-3
  3.495     0.5573E-3
  3.496     0.5549E-3
  3.498     0.5525E-3
  3.499     0.5501E-3
  3.500     0.5477E-3
  3.501     0.5453E-3
  3.502     0.5430E-3
  3.503     0.5407E-3
  3.504     0.5383E-3
  3.505     0.5360E-3
  3.506     0.5337E-3
  3.507     0.5315E-3
  3.508     0.5292E-3
  3.510     0.5270E-3
  3.511     0.5247E-3
  3.512     0.5225E-3
  3.513     0.5203E-3
  3.514     0.5181E-3
  3.515     0.5160E-3
  3.516     0.5138E-3
  3.517     0.5116E-3
  3.518     0.5095E-3
  3.519     0.5074E-3
  3.520     0.5053E-3
  3.522     0.5032E-3
  3.523     0.5011E-3
  3.524     0.4990E-3
  3.525     0.4970E-3
  3.526     0.4949E-3
  3.527     0.4929E-3
  3.528     0.4909E-3
  3.529     0.4889E-3
  3.530     0.4869E-3
  3.531     0.4849E-3
  3.532     0.4829E-3
  3.534     0.4810E-3
  3.535     0.4790E-3
  3.536     0.4771E-3
  3.537     0.4752E-3
# 
# 06/19/2019 at 14:22 YPP @ br018.pvt.bridges.psc.edu [start]
# 06/19/2019 at 14:22                                 [end]
#  
# Timing   [Min/Max/Average]: 02s/02s/02s
#
# .-Input file : amp.in
# | excitons                     # [R] Excitons
# | amplitude                    # [R] Amplitude
# | BoseTemp=  0.02585     eV    # Bosonic Temperature
# | States= "1 - 20"             # Index of the BS state(s)
# | #DipWeight                   #  Weight the contribution to the exciton WFs with the dipoles
# | Degen_Step=0.1000E-4   eV    # Maximum energy separation of two degenerate states
