#  __      __   ______   __       __  _______    ______     
# |  \    /  \ /      \ |  \     /  \|       \  /      \    
#  \$$\  /  $$|  $$$$$$\| $$\   /  $$| $$$$$$$\|  $$$$$$\   
#   \$$\/  $$ | $$__| $$| $$$\ /  $$$| $$__/ $$| $$  | $$   
#    \$$  $$  | $$    $$| $$$$\  $$$$| $$    $$| $$  | $$   
#     \$$$$   | $$$$$$$$| $$\$$ $$ $$| $$$$$$$\| $$  | $$   
#     | $$    | $$  | $$| $$ \$$$| $$| $$__/ $$| $$__/ $$   
#     | $$    | $$  | $$| $$  \$ | $$| $$    $$ \$$    $$   
#      \$$     \$$   \$$ \$$      \$$ \$$$$$$$   \$$$$$$    
#                                                           
#              GPL Version 4.1.4 Revision 76                
#                        MPI Build                          
#                http://www.yambo-code.org                  
#
# BSK|Identifier              :7677
#    |Dimension               :3278
#    |Bands                   :534 - 614
#    |Exchange           [res]: yes
#    |Correlation        [res]: no
#    |Kernel`s coupling       : no
#    |Exchange           [cpl]: no
#    |Correlation        [cpl]: no
#    |W interaction is bare   : no
#    |ALDA kernel in R-space  : no
#    |RL vectors    [exchange]:55207
#    |E/h energy range    [ev]:-1.000000 - -1.000000
#    |Coupling range     [o/o]: 100.0000 -  100.0000
#
# Electron-Hole pairs that contributes to Excitonic State 20 more than 5%
#
#  E    [eV]  Amplitude
#  
  2.458     0.6698E-3
  2.459     0.6728E-3
  2.460     0.6758E-3
  2.462     0.6789E-3
  2.463     0.6819E-3
  2.464     0.6850E-3
  2.465     0.6881E-3
  2.467     0.6913E-3
  2.468     0.6944E-3
  2.469     0.6976E-3
  2.470     0.7008E-3
  2.471     0.7040E-3
  2.473     0.7072E-3
  2.474     0.7105E-3
  2.475     0.7137E-3
  2.476     0.7170E-3
  2.478     0.7204E-3
  2.479     0.7237E-3
  2.480     0.7271E-3
  2.481     0.7305E-3
  2.482     0.7339E-3
  2.484     0.7373E-3
  2.485     0.7408E-3
  2.486     0.7443E-3
  2.487     0.7478E-3
  2.489     0.7513E-3
  2.490     0.7549E-3
  2.491     0.7585E-3
  2.492     0.7621E-3
  2.493     0.7658E-3
  2.495     0.7694E-3
  2.496     0.7731E-3
  2.497     0.7768E-3
  2.498     0.7806E-3
  2.500     0.7844E-3
  2.501     0.7882E-3
  2.502     0.7920E-3
  2.503     0.7959E-3
  2.504     0.7998E-3
  2.506     0.8037E-3
  2.507     0.8076E-3
  2.508     0.8116E-3
  2.509     0.8156E-3
  2.511     0.8196E-3
  2.512     0.8237E-3
  2.513     0.8278E-3
  2.514     0.8319E-3
  2.516     0.8361E-3
  2.517     0.8403E-3
  2.518     0.8445E-3
  2.519     0.8487E-3
  2.520     0.8530E-3
  2.522     0.8573E-3
  2.523     0.8617E-3
  2.524     0.8661E-3
  2.525     0.8705E-3
  2.527     0.8749E-3
  2.528     0.8794E-3
  2.529     0.8839E-3
  2.530     0.8885E-3
  2.531     0.8931E-3
  2.533     0.8977E-3
  2.534     0.9024E-3
  2.535     0.9071E-3
  2.536     0.9118E-3
  2.538     0.9166E-3
  2.539     0.9214E-3
  2.540     0.9262E-3
  2.541     0.9311E-3
  2.542     0.9360E-3
  2.544     0.9410E-3
  2.545     0.9460E-3
  2.546     0.9510E-3
  2.547     0.9561E-3
  2.549     0.9613E-3
  2.550     0.9664E-3
  2.551     0.9716E-3
  2.552     0.9769E-3
  2.554     0.9822E-3
  2.555     0.9875E-3
  2.556     0.9929E-3
  2.557     0.9983E-3
  2.558     0.1004E-2
  2.560     0.1009E-2
  2.561     0.1015E-2
  2.562     0.1020E-2
  2.563     0.1026E-2
  2.565     0.1032E-2
  2.566     0.1038E-2
  2.567     0.1043E-2
  2.568     0.1049E-2
  2.569     0.1055E-2
  2.571     0.1061E-2
  2.572     0.1067E-2
  2.573     0.1073E-2
  2.574     0.1079E-2
  2.576     0.1085E-2
  2.577     0.1092E-2
  2.578     0.1098E-2
  2.579     0.1104E-2
  2.580     0.1110E-2
  2.582     0.1117E-2
  2.583     0.1123E-2
  2.584     0.1130E-2
  2.585     0.1136E-2
  2.587     0.1143E-2
  2.588     0.1150E-2
  2.589     0.1157E-2
  2.590     0.1163E-2
  2.592     0.1170E-2
  2.593     0.1177E-2
  2.594     0.1184E-2
  2.595     0.1191E-2
  2.596     0.1198E-2
  2.598     0.1206E-2
  2.599     0.1213E-2
  2.600     0.1220E-2
  2.601     0.1228E-2
  2.603     0.1235E-2
  2.604     0.1243E-2
  2.605     0.1250E-2
  2.606     0.1258E-2
  2.607     0.1266E-2
  2.609     0.1273E-2
  2.610     0.1281E-2
  2.611     0.1289E-2
  2.612     0.1297E-2
  2.614     0.1305E-2
  2.615     0.1314E-2
  2.616     0.1322E-2
  2.617     0.1330E-2
  2.618     0.1339E-2
  2.620     0.1347E-2
  2.621     0.1356E-2
  2.622     0.1364E-2
  2.623     0.1373E-2
  2.625     0.1382E-2
  2.626     0.1391E-2
  2.627     0.1400E-2
  2.628     0.1409E-2
  2.630     0.1418E-2
  2.631     0.1428E-2
  2.632     0.1437E-2
  2.633     0.1446E-2
  2.634     0.1456E-2
  2.636     0.1466E-2
  2.637     0.1475E-2
  2.638     0.1485E-2
  2.639     0.1495E-2
  2.641     0.1505E-2
  2.642     0.1515E-2
  2.643     0.1526E-2
  2.644     0.1536E-2
  2.645     0.1546E-2
  2.647     0.1557E-2
  2.648     0.1568E-2
  2.649     0.1578E-2
  2.650     0.1589E-2
  2.652     0.1600E-2
  2.653     0.1612E-2
  2.654     0.1623E-2
  2.655     0.1634E-2
  2.656     0.1646E-2
  2.658     0.1657E-2
  2.659     0.1669E-2
  2.660     0.1681E-2
  2.661     0.1693E-2
  2.663     0.1705E-2
  2.664     0.1717E-2
  2.665     0.1730E-2
  2.666     0.1742E-2
  2.668     0.1755E-2
  2.669     0.1768E-2
  2.670     0.1780E-2
  2.671     0.1794E-2
  2.672     0.1807E-2
  2.674     0.1820E-2
  2.675     0.1834E-2
  2.676     0.1847E-2
  2.677     0.1861E-2
  2.679     0.1875E-2
  2.680     0.1889E-2
  2.681     0.1904E-2
  2.682     0.1918E-2
  2.683     0.1933E-2
  2.685     0.1947E-2
  2.686     0.1962E-2
  2.687     0.1978E-2
  2.688     0.1993E-2
  2.690     0.2008E-2
  2.691     0.2024E-2
  2.692     0.2040E-2
  2.693     0.2056E-2
  2.694     0.2072E-2
  2.696     0.2089E-2
  2.697     0.2105E-2
  2.698     0.2122E-2
  2.699     0.2139E-2
  2.701     0.2156E-2
  2.702     0.2174E-2
  2.703     0.2191E-2
  2.704     0.2209E-2
  2.706     0.2227E-2
  2.707     0.2246E-2
  2.708     0.2264E-2
  2.709     0.2283E-2
  2.710     0.2302E-2
  2.712     0.2321E-2
  2.713     0.2341E-2
  2.714     0.2361E-2
  2.715     0.2381E-2
  2.717     0.2401E-2
  2.718     0.2421E-2
  2.719     0.2442E-2
  2.720     0.2463E-2
  2.721     0.2485E-2
  2.723     0.2506E-2
  2.724     0.2528E-2
  2.725     0.2550E-2
  2.726     0.2573E-2
  2.728     0.2596E-2
  2.729     0.2619E-2
  2.730     0.2642E-2
  2.731     0.2666E-2
  2.732     0.2690E-2
  2.734     0.2714E-2
    2.7349     0.0027
    2.7362     0.0028
    2.7374     0.0028
    2.7386     0.0028
    2.7398     0.0028
    2.7411     0.0029
    2.7423     0.0029
    2.7435     0.0029
    2.7447     0.0029
    2.7460     0.0030
    2.7472     0.0030
    2.7484     0.0030
    2.7496     0.0031
    2.7509     0.0031
    2.7521     0.0031
    2.7533     0.0032
    2.7545     0.0032
    2.7558     0.0032
    2.7570     0.0032
    2.7582     0.0033
    2.7594     0.0033
    2.7607     0.0033
    2.7619     0.0034
    2.7631     0.0034
    2.7643     0.0035
    2.7656     0.0035
    2.7668     0.0035
    2.7680     0.0036
    2.7692     0.0036
    2.7705     0.0036
    2.7717     0.0037
    2.7729     0.0037
    2.7742     0.0038
    2.7754     0.0038
    2.7766     0.0038
    2.7778     0.0039
    2.7791     0.0039
    2.7803     0.0040
    2.7815     0.0040
    2.7827     0.0040
    2.7840     0.0041
    2.7852     0.0041
    2.7864     0.0042
    2.7876     0.0042
    2.7889     0.0043
    2.7901     0.0043
    2.7913     0.0044
    2.7925     0.0044
    2.7938     0.0045
    2.7950     0.0045
    2.7962     0.0046
    2.7974     0.0046
    2.7987     0.0047
    2.7999     0.0048
    2.8011     0.0048
    2.8023     0.0049
    2.8036     0.0049
    2.8048     0.0050
    2.8060     0.0051
    2.8072     0.0051
    2.8085     0.0052
    2.8097     0.0053
    2.8109     0.0053
    2.8121     0.0054
    2.8134     0.0055
    2.8146     0.0055
    2.8158     0.0056
    2.8171     0.0057
    2.8183     0.0058
    2.8195     0.0058
    2.8207     0.0059
    2.8220     0.0060
    2.8232     0.0061
    2.8244     0.0062
    2.8256     0.0062
    2.8269     0.0063
    2.8281     0.0064
    2.8293     0.0065
    2.8305     0.0066
    2.8318     0.0067
    2.8330     0.0068
    2.8342     0.0069
    2.8354     0.0070
    2.8367     0.0071
    2.8379     0.0072
    2.8391     0.0073
    2.8403     0.0074
    2.8416     0.0075
    2.8428     0.0077
    2.8440     0.0078
    2.8452     0.0079
    2.8465     0.0080
    2.8477     0.0081
    2.8489     0.0083
    2.8501     0.0084
    2.8514     0.0086
    2.8526     0.0087
    2.8538     0.0088
    2.8550     0.0090
    2.8563     0.0091
    2.8575     0.0093
    2.8587     0.0095
    2.8600     0.0096
    2.8612     0.0098
    2.8624     0.0100
   2.86363    0.01014
   2.86485    0.01033
   2.86608    0.01052
   2.86731    0.01071
   2.86853    0.01091
   2.86976    0.01112
   2.87098    0.01133
   2.87221    0.01155
   2.87343    0.01177
   2.87466    0.01201
   2.87589    0.01224
   2.87711    0.01249
   2.87834    0.01274
   2.87956    0.01301
   2.88079    0.01328
   2.88201    0.01356
   2.88324    0.01384
   2.88446    0.01414
   2.88569    0.01445
   2.88692    0.01477
   2.88814    0.01510
   2.88937    0.01544
   2.89059    0.01580
   2.89182    0.01616
   2.89304    0.01654
   2.89427    0.01694
   2.89550    0.01735
   2.89672    0.01778
   2.89795    0.01822
   2.89917    0.01868
   2.90040    0.01916
   2.90162    0.01966
   2.90285    0.02018
   2.90408    0.02072
   2.90530    0.02128
   2.90653    0.02187
   2.90775    0.02249
   2.90898    0.02314
   2.91020    0.02382
   2.91143    0.02453
   2.91266    0.02527
   2.91388    0.02605
   2.91511    0.02688
   2.91633    0.02774
   2.91756    0.02865
   2.91878    0.02962
   2.92001    0.03064
   2.92124    0.03172
   2.92246    0.03286
   2.92369    0.03407
   2.92491    0.03537
   2.92614    0.03674
   2.92736    0.03821
   2.92859    0.03979
   2.92982    0.04147
   2.93104    0.04328
   2.93227    0.04523
   2.93349    0.04734
   2.93472    0.04962
   2.93594    0.05209
   2.93717    0.05478
   2.93840    0.05771
   2.93962    0.06091
   2.94085    0.06441
   2.94207    0.06824
   2.94330    0.07244
   2.94452    0.07705
   2.94575    0.08208
   2.94698    0.08756
   2.94820    0.09347
   2.94943    0.09980
  2.950653   0.106468
  2.951879   0.113336
  2.953104   0.120219
  2.954330   0.126874
  2.955556   0.133029
  2.956781   0.138439
  2.958007   0.142936
  2.959233   0.146481
  2.960459   0.149184
  2.961684   0.151274
  2.962910   0.153049
  2.964136   0.154819
  2.965361   0.156856
  2.966587   0.159371
  2.967813   0.162523
  2.969038   0.166422
  2.970264   0.171158
  2.971490   0.176820
  2.972716   0.183510
  2.973941   0.191347
  2.975167   0.200474
  2.976393   0.211051
  2.977618   0.223249
  2.978844   0.237263
  2.980070   0.253300
  2.981295   0.271584
  2.982521   0.292364
  2.983747   0.315898
  2.984972   0.342447
  2.986198   0.372278
  2.987424   0.405617
  2.988650   0.442633
  2.989875   0.483436
  2.991101   0.528005
  2.992327   0.576185
  2.993552   0.627683
  2.994778   0.681960
  2.996004   0.738153
  2.997230   0.794942
  2.998455   0.850327
  2.999681   0.901566
  3.000907   0.945333
  3.002132   0.978100
  3.003358   0.996881
  3.004584   1.000000
  3.005810   0.987589
  3.007035   0.961627
  3.008261   0.925430
  3.009487   0.882896
  3.010712   0.837753
  3.011938   0.792992
  3.013164   0.750666
  3.014389   0.711832
  3.015615   0.676642
  3.016841   0.644571
  3.018066   0.614633
  3.019292   0.585659
  3.020518   0.556620
  3.021744   0.526858
  3.022969   0.496195
  3.024195   0.464933
  3.025421   0.433688
  3.026646   0.403169
  3.027872   0.374046
  3.029098   0.346833
  3.030324   0.321844
  3.031549   0.299241
  3.032775   0.279045
  3.034001   0.261188
  3.035226   0.245533
  3.036452   0.231916
  3.037678   0.220140
  3.038903   0.209999
  3.040129   0.201278
  3.041355   0.193755
  3.042581   0.187227
  3.043806   0.181518
  3.045032   0.176499
  3.046258   0.172095
  3.047483   0.168277
  3.048709   0.165037
  3.049935   0.162351
  3.051160   0.160151
  3.052386   0.158290
  3.053612   0.156545
  3.054838   0.154620
  3.056063   0.152198
  3.057289   0.148991
  3.058515   0.144819
  3.059740   0.139642
  3.060966   0.133575
  3.062192   0.126847
  3.063417   0.119739
  3.064643   0.112529
  3.065869   0.105449
   3.06709    0.09867
   3.06832    0.09230
   3.06955    0.08639
   3.07077    0.08095
   3.07200    0.07599
   3.07322    0.07146
   3.07445    0.06735
   3.07567    0.06361
   3.07690    0.06021
   3.07813    0.05711
   3.07935    0.05428
   3.08058    0.05170
   3.08180    0.04933
   3.08303    0.04716
   3.08425    0.04517
   3.08548    0.04333
   3.08671    0.04163
   3.08793    0.04007
   3.08916    0.03862
   3.09038    0.03728
   3.09161    0.03604
   3.09283    0.03489
   3.09406    0.03382
   3.09529    0.03284
   3.09651    0.03194
   3.09774    0.03111
   3.09896    0.03034
   3.10019    0.02965
   3.10141    0.02902
   3.10264    0.02846
   3.10387    0.02796
   3.10509    0.02753
   3.10632    0.02717
   3.10754    0.02688
   3.10877    0.02667
   3.10999    0.02654
   3.11122    0.02648
   3.11245    0.02652
   3.11367    0.02665
   3.11490    0.02687
   3.11612    0.02719
   3.11735    0.02760
   3.11857    0.02809
   3.11980    0.02865
   3.12103    0.02922
   3.12225    0.02977
   3.12348    0.03023
   3.12470    0.03054
   3.12593    0.03063
   3.12715    0.03045
   3.12838    0.02998
   3.12961    0.02925
   3.13083    0.02829
   3.13206    0.02718
   3.13328    0.02598
   3.13451    0.02476
   3.13573    0.02355
   3.13696    0.02240
   3.13819    0.02131
   3.13941    0.02032
   3.14064    0.01940
   3.14186    0.01857
   3.14309    0.01782
   3.14431    0.01714
   3.14554    0.01653
   3.14677    0.01597
   3.14799    0.01548
   3.14922    0.01503
   3.15044    0.01463
   3.15167    0.01427
   3.15289    0.01395
   3.15412    0.01367
   3.15535    0.01343
   3.15657    0.01321
   3.15780    0.01303
   3.15902    0.01289
   3.16025    0.01277
   3.16147    0.01269
   3.16270    0.01265
   3.16393    0.01264
   3.16515    0.01267
   3.16638    0.01275
   3.16760    0.01287
   3.16883    0.01304
   3.17005    0.01326
   3.17128    0.01354
   3.17251    0.01387
   3.17373    0.01425
   3.17496    0.01468
   3.17618    0.01514
   3.17741    0.01562
   3.17863    0.01607
   3.17986    0.01647
   3.18108    0.01677
   3.18231    0.01693
   3.18354    0.01691
   3.18476    0.01671
   3.18599    0.01633
   3.18721    0.01580
   3.18844    0.01516
   3.18966    0.01446
   3.19089    0.01373
   3.19212    0.01301
   3.19334    0.01232
   3.19457    0.01167
   3.19579    0.01107
   3.19702    0.01051
   3.19824    0.01001
    3.1995     0.0096
    3.2007     0.0091
    3.2019     0.0088
    3.2031     0.0084
    3.2044     0.0081
    3.2056     0.0078
    3.2068     0.0076
    3.2081     0.0073
    3.2093     0.0071
    3.2105     0.0069
    3.2117     0.0067
    3.2130     0.0065
    3.2142     0.0064
    3.2154     0.0062
    3.2166     0.0061
    3.2179     0.0060
    3.2191     0.0058
    3.2203     0.0057
    3.2215     0.0056
    3.2228     0.0055
    3.2240     0.0054
    3.2252     0.0053
    3.2264     0.0052
    3.2277     0.0051
    3.2289     0.0050
    3.2301     0.0049
    3.2313     0.0048
    3.2326     0.0048
    3.2338     0.0047
    3.2350     0.0046
    3.2362     0.0045
    3.2375     0.0045
    3.2387     0.0044
    3.2399     0.0044
    3.2411     0.0043
    3.2424     0.0042
    3.2436     0.0042
    3.2448     0.0041
    3.2460     0.0041
    3.2473     0.0040
    3.2485     0.0040
    3.2497     0.0039
    3.2509     0.0039
    3.2522     0.0038
    3.2534     0.0038
    3.2546     0.0037
    3.2559     0.0037
    3.2571     0.0036
    3.2583     0.0036
    3.2595     0.0035
    3.2608     0.0035
    3.2620     0.0035
    3.2632     0.0034
    3.2644     0.0034
    3.2657     0.0034
    3.2669     0.0033
    3.2681     0.0033
  3.269     0.3243E-2
  3.271     0.3208E-2
  3.272     0.3174E-2
  3.273     0.3140E-2
  3.274     0.3107E-2
  3.275     0.3075E-2
  3.277     0.3043E-2
  3.278     0.3012E-2
  3.279     0.2981E-2
  3.280     0.2951E-2
  3.282     0.2921E-2
  3.283     0.2892E-2
  3.284     0.2864E-2
  3.285     0.2835E-2
  3.286     0.2808E-2
  3.288     0.2780E-2
  3.289     0.2754E-2
  3.290     0.2727E-2
  3.291     0.2701E-2
  3.293     0.2676E-2
  3.294     0.2651E-2
  3.295     0.2626E-2
  3.296     0.2601E-2
  3.298     0.2577E-2
  3.299     0.2554E-2
  3.300     0.2530E-2
  3.301     0.2507E-2
  3.302     0.2485E-2
  3.304     0.2462E-2
  3.305     0.2440E-2
  3.306     0.2419E-2
  3.307     0.2397E-2
  3.309     0.2376E-2
  3.310     0.2355E-2
  3.311     0.2335E-2
  3.312     0.2315E-2
  3.313     0.2295E-2
  3.315     0.2275E-2
  3.316     0.2256E-2
  3.317     0.2237E-2
  3.318     0.2218E-2
  3.320     0.2199E-2
  3.321     0.2181E-2
  3.322     0.2163E-2
  3.323     0.2145E-2
  3.324     0.2127E-2
  3.326     0.2110E-2
  3.327     0.2093E-2
  3.328     0.2076E-2
  3.329     0.2059E-2
  3.331     0.2042E-2
  3.332     0.2026E-2
  3.333     0.2010E-2
  3.334     0.1994E-2
  3.336     0.1978E-2
  3.337     0.1963E-2
  3.338     0.1947E-2
  3.339     0.1932E-2
  3.340     0.1917E-2
  3.342     0.1902E-2
  3.343     0.1888E-2
  3.344     0.1873E-2
  3.345     0.1859E-2
  3.347     0.1845E-2
  3.348     0.1831E-2
  3.349     0.1817E-2
  3.350     0.1803E-2
  3.351     0.1790E-2
  3.353     0.1777E-2
  3.354     0.1764E-2
  3.355     0.1751E-2
  3.356     0.1738E-2
  3.358     0.1725E-2
  3.359     0.1712E-2
  3.360     0.1700E-2
  3.361     0.1688E-2
  3.362     0.1675E-2
  3.364     0.1663E-2
  3.365     0.1652E-2
  3.366     0.1640E-2
  3.367     0.1628E-2
  3.369     0.1617E-2
  3.370     0.1605E-2
  3.371     0.1594E-2
  3.372     0.1583E-2
  3.374     0.1572E-2
  3.375     0.1561E-2
  3.376     0.1550E-2
  3.377     0.1540E-2
  3.378     0.1529E-2
  3.380     0.1519E-2
  3.381     0.1508E-2
  3.382     0.1498E-2
  3.383     0.1488E-2
  3.385     0.1478E-2
  3.386     0.1468E-2
  3.387     0.1458E-2
  3.388     0.1448E-2
  3.389     0.1439E-2
  3.391     0.1429E-2
  3.392     0.1420E-2
  3.393     0.1411E-2
  3.394     0.1401E-2
  3.396     0.1392E-2
  3.397     0.1383E-2
  3.398     0.1374E-2
  3.399     0.1365E-2
  3.400     0.1357E-2
  3.402     0.1348E-2
  3.403     0.1339E-2
  3.404     0.1331E-2
  3.405     0.1322E-2
  3.407     0.1314E-2
  3.408     0.1306E-2
  3.409     0.1297E-2
  3.410     0.1289E-2
  3.412     0.1281E-2
  3.413     0.1273E-2
  3.414     0.1265E-2
  3.415     0.1258E-2
  3.416     0.1250E-2
  3.418     0.1242E-2
  3.419     0.1235E-2
  3.420     0.1227E-2
  3.421     0.1220E-2
  3.423     0.1212E-2
  3.424     0.1205E-2
  3.425     0.1198E-2
  3.426     0.1190E-2
  3.427     0.1183E-2
  3.429     0.1176E-2
  3.430     0.1169E-2
  3.431     0.1162E-2
  3.432     0.1155E-2
  3.434     0.1149E-2
  3.435     0.1142E-2
  3.436     0.1135E-2
  3.437     0.1128E-2
  3.438     0.1122E-2
  3.440     0.1115E-2
  3.441     0.1109E-2
  3.442     0.1103E-2
  3.443     0.1096E-2
  3.445     0.1090E-2
  3.446     0.1084E-2
  3.447     0.1077E-2
  3.448     0.1071E-2
  3.450     0.1065E-2
  3.451     0.1059E-2
  3.452     0.1053E-2
  3.453     0.1047E-2
  3.454     0.1041E-2
  3.456     0.1036E-2
  3.457     0.1030E-2
  3.458     0.1024E-2
  3.459     0.1018E-2
  3.461     0.1013E-2
  3.462     0.1007E-2
  3.463     0.1002E-2
  3.464     0.9962E-3
  3.465     0.9908E-3
  3.467     0.9854E-3
  3.468     0.9801E-3
  3.469     0.9747E-3
  3.470     0.9695E-3
  3.472     0.9643E-3
  3.473     0.9591E-3
  3.474     0.9539E-3
  3.475     0.9488E-3
  3.476     0.9438E-3
  3.478     0.9388E-3
  3.479     0.9338E-3
  3.480     0.9289E-3
  3.481     0.9240E-3
  3.483     0.9191E-3
  3.484     0.9143E-3
  3.485     0.9095E-3
  3.486     0.9048E-3
  3.488     0.9001E-3
  3.489     0.8954E-3
  3.490     0.8908E-3
  3.491     0.8862E-3
  3.492     0.8816E-3
  3.494     0.8771E-3
  3.495     0.8726E-3
  3.496     0.8681E-3
  3.497     0.8637E-3
  3.499     0.8593E-3
  3.500     0.8550E-3
  3.501     0.8507E-3
  3.502     0.8464E-3
  3.503     0.8421E-3
  3.505     0.8379E-3
  3.506     0.8337E-3
  3.507     0.8295E-3
  3.508     0.8254E-3
  3.510     0.8213E-3
  3.511     0.8173E-3
  3.512     0.8132E-3
  3.513     0.8092E-3
  3.514     0.8052E-3
  3.516     0.8013E-3
  3.517     0.7974E-3
  3.518     0.7935E-3
  3.519     0.7896E-3
  3.521     0.7858E-3
  3.522     0.7820E-3
  3.523     0.7782E-3
  3.524     0.7745E-3
  3.526     0.7707E-3
  3.527     0.7671E-3
  3.528     0.7634E-3
  3.529     0.7597E-3
  3.530     0.7561E-3
  3.532     0.7525E-3
  3.533     0.7490E-3
  3.534     0.7454E-3
  3.535     0.7419E-3
  3.537     0.7384E-3
  3.538     0.7350E-3
  3.539     0.7315E-3
  3.540     0.7281E-3
  3.541     0.7247E-3
  3.543     0.7214E-3
  3.544     0.7180E-3
  3.545     0.7147E-3
  3.546     0.7114E-3
  3.548     0.7081E-3
  3.549     0.7049E-3
  3.550     0.7017E-3
  3.551     0.6984E-3
  3.552     0.6953E-3
  3.554     0.6921E-3
  3.555     0.6890E-3
  3.556     0.6858E-3
  3.557     0.6827E-3
  3.559     0.6797E-3
  3.560     0.6766E-3
  3.561     0.6736E-3
  3.562     0.6706E-3
  3.564     0.6676E-3
  3.565     0.6646E-3
  3.566     0.6616E-3
  3.567     0.6587E-3
  3.568     0.6558E-3
  3.570     0.6529E-3
  3.571     0.6500E-3
  3.572     0.6472E-3
  3.573     0.6443E-3
  3.575     0.6415E-3
  3.576     0.6387E-3
  3.577     0.6359E-3
  3.578     0.6331E-3
  3.579     0.6304E-3
  3.581     0.6277E-3
  3.582     0.6250E-3
  3.583     0.6223E-3
  3.584     0.6196E-3
  3.586     0.6169E-3
  3.587     0.6143E-3
  3.588     0.6117E-3
  3.589     0.6091E-3
  3.590     0.6065E-3
  3.592     0.6039E-3
  3.593     0.6013E-3
  3.594     0.5988E-3
  3.595     0.5963E-3
  3.597     0.5938E-3
  3.598     0.5913E-3
  3.599     0.5888E-3
  3.600     0.5863E-3
  3.602     0.5839E-3
  3.603     0.5814E-3
  3.604     0.5790E-3
  3.605     0.5766E-3
  3.606     0.5742E-3
  3.608     0.5719E-3
  3.609     0.5695E-3
  3.610     0.5672E-3
  3.611     0.5648E-3
  3.613     0.5625E-3
  3.614     0.5602E-3
  3.615     0.5579E-3
  3.616     0.5557E-3
  3.617     0.5534E-3
  3.619     0.5512E-3
  3.620     0.5489E-3
  3.621     0.5467E-3
  3.622     0.5445E-3
  3.624     0.5423E-3
  3.625     0.5402E-3
  3.626     0.5380E-3
  3.627     0.5358E-3
  3.628     0.5337E-3
  3.630     0.5316E-3
  3.631     0.5295E-3
  3.632     0.5274E-3
  3.633     0.5253E-3
  3.635     0.5232E-3
  3.636     0.5212E-3
  3.637     0.5191E-3
  3.638     0.5171E-3
  3.639     0.5150E-3
  3.641     0.5130E-3
  3.642     0.5110E-3
  3.643     0.5090E-3
  3.644     0.5071E-3
  3.646     0.5051E-3
  3.647     0.5031E-3
  3.648     0.5012E-3
  3.649     0.4993E-3
  3.651     0.4973E-3
  3.652     0.4954E-3
  3.653     0.4935E-3
  3.654     0.4916E-3
  3.655     0.4898E-3
  3.657     0.4879E-3
  3.658     0.4860E-3
  3.659     0.4842E-3
  3.660     0.4824E-3
  3.662     0.4805E-3
  3.663     0.4787E-3
  3.664     0.4769E-3
  3.665     0.4751E-3
  3.666     0.4733E-3
  3.668     0.4716E-3
  3.669     0.4698E-3
  3.670     0.4681E-3
  3.671     0.4663E-3
  3.673     0.4646E-3
  3.674     0.4628E-3
  3.675     0.4611E-3
  3.676     0.4594E-3
  3.677     0.4577E-3
  3.679     0.4560E-3
  3.680     0.4544E-3
  3.681     0.4527E-3
  3.682     0.4510E-3
# 
# 06/19/2019 at 14:22 YPP @ br018.pvt.bridges.psc.edu [start]
# 06/19/2019 at 14:22                                 [end]
#  
# Timing   [Min/Max/Average]: 02s/02s/02s
#
# .-Input file : amp.in
# | excitons                     # [R] Excitons
# | amplitude                    # [R] Amplitude
# | BoseTemp=  0.02585     eV    # Bosonic Temperature
# | States= "1 - 20"             # Index of the BS state(s)
# | #DipWeight                   #  Weight the contribution to the exciton WFs with the dipoles
# | Degen_Step=0.1000E-4   eV    # Maximum energy separation of two degenerate states
