#  __      __   ______   __       __  _______    ______     
# |  \    /  \ /      \ |  \     /  \|       \  /      \    
#  \$$\  /  $$|  $$$$$$\| $$\   /  $$| $$$$$$$\|  $$$$$$\   
#   \$$\/  $$ | $$__| $$| $$$\ /  $$$| $$__/ $$| $$  | $$   
#    \$$  $$  | $$    $$| $$$$\  $$$$| $$    $$| $$  | $$   
#     \$$$$   | $$$$$$$$| $$\$$ $$ $$| $$$$$$$\| $$  | $$   
#     | $$    | $$  | $$| $$ \$$$| $$| $$__/ $$| $$__/ $$   
#     | $$    | $$  | $$| $$  \$ | $$| $$    $$ \$$    $$   
#      \$$     \$$   \$$ \$$      \$$ \$$$$$$$   \$$$$$$    
#                                                           
#              GPL Version 4.1.4 Revision 76                
#                        MPI Build                          
#                http://www.yambo-code.org                  
#
# BSK|Identifier              :7677
#    |Dimension               :3278
#    |Bands                   :534 - 614
#    |Exchange           [res]: yes
#    |Correlation        [res]: no
#    |Kernel`s coupling       : no
#    |Exchange           [cpl]: no
#    |Correlation        [cpl]: no
#    |W interaction is bare   : no
#    |ALDA kernel in R-space  : no
#    |RL vectors    [exchange]:55207
#    |E/h energy range    [ev]:-1.000000 - -1.000000
#    |Coupling range     [o/o]: 100.0000 -  100.0000
#
# Electron-Hole pairs that contributes to Excitonic State 19 more than 5%
#
#  E    [eV]  Amplitude
#  
  2.447     0.4856E-3
  2.448     0.4875E-3
  2.449     0.4895E-3
  2.450     0.4914E-3
  2.451     0.4934E-3
  2.452     0.4954E-3
  2.453     0.4974E-3
  2.454     0.4994E-3
  2.456     0.5014E-3
  2.457     0.5035E-3
  2.458     0.5055E-3
  2.459     0.5076E-3
  2.460     0.5097E-3
  2.461     0.5118E-3
  2.462     0.5139E-3
  2.463     0.5160E-3
  2.464     0.5181E-3
  2.466     0.5203E-3
  2.467     0.5224E-3
  2.468     0.5246E-3
  2.469     0.5268E-3
  2.470     0.5290E-3
  2.471     0.5312E-3
  2.472     0.5334E-3
  2.473     0.5357E-3
  2.475     0.5379E-3
  2.476     0.5402E-3
  2.477     0.5425E-3
  2.478     0.5448E-3
  2.479     0.5471E-3
  2.480     0.5494E-3
  2.481     0.5518E-3
  2.482     0.5541E-3
  2.483     0.5565E-3
  2.485     0.5589E-3
  2.486     0.5613E-3
  2.487     0.5637E-3
  2.488     0.5661E-3
  2.489     0.5686E-3
  2.490     0.5710E-3
  2.491     0.5735E-3
  2.492     0.5760E-3
  2.493     0.5785E-3
  2.495     0.5811E-3
  2.496     0.5836E-3
  2.497     0.5862E-3
  2.498     0.5888E-3
  2.499     0.5914E-3
  2.500     0.5940E-3
  2.501     0.5966E-3
  2.502     0.5993E-3
  2.504     0.6019E-3
  2.505     0.6046E-3
  2.506     0.6073E-3
  2.507     0.6100E-3
  2.508     0.6128E-3
  2.509     0.6155E-3
  2.510     0.6183E-3
  2.511     0.6211E-3
  2.512     0.6239E-3
  2.514     0.6268E-3
  2.515     0.6296E-3
  2.516     0.6325E-3
  2.517     0.6354E-3
  2.518     0.6383E-3
  2.519     0.6412E-3
  2.520     0.6442E-3
  2.521     0.6472E-3
  2.523     0.6502E-3
  2.524     0.6532E-3
  2.525     0.6562E-3
  2.526     0.6593E-3
  2.527     0.6623E-3
  2.528     0.6654E-3
  2.529     0.6686E-3
  2.530     0.6717E-3
  2.531     0.6749E-3
  2.533     0.6781E-3
  2.534     0.6813E-3
  2.535     0.6845E-3
  2.536     0.6878E-3
  2.537     0.6911E-3
  2.538     0.6944E-3
  2.539     0.6977E-3
  2.540     0.7011E-3
  2.542     0.7044E-3
  2.543     0.7078E-3
  2.544     0.7113E-3
  2.545     0.7147E-3
  2.546     0.7182E-3
  2.547     0.7217E-3
  2.548     0.7252E-3
  2.549     0.7288E-3
  2.550     0.7324E-3
  2.552     0.7360E-3
  2.553     0.7396E-3
  2.554     0.7433E-3
  2.555     0.7469E-3
  2.556     0.7507E-3
  2.557     0.7544E-3
  2.558     0.7582E-3
  2.559     0.7620E-3
  2.560     0.7658E-3
  2.562     0.7697E-3
  2.563     0.7736E-3
  2.564     0.7775E-3
  2.565     0.7814E-3
  2.566     0.7854E-3
  2.567     0.7894E-3
  2.568     0.7934E-3
  2.569     0.7975E-3
  2.571     0.8016E-3
  2.572     0.8057E-3
  2.573     0.8099E-3
  2.574     0.8141E-3
  2.575     0.8183E-3
  2.576     0.8226E-3
  2.577     0.8269E-3
  2.578     0.8312E-3
  2.579     0.8356E-3
  2.581     0.8400E-3
  2.582     0.8444E-3
  2.583     0.8489E-3
  2.584     0.8534E-3
  2.585     0.8579E-3
  2.586     0.8625E-3
  2.587     0.8671E-3
  2.588     0.8718E-3
  2.590     0.8765E-3
  2.591     0.8812E-3
  2.592     0.8859E-3
  2.593     0.8907E-3
  2.594     0.8956E-3
  2.595     0.9005E-3
  2.596     0.9054E-3
  2.597     0.9104E-3
  2.598     0.9154E-3
  2.600     0.9204E-3
  2.601     0.9255E-3
  2.602     0.9306E-3
  2.603     0.9358E-3
  2.604     0.9410E-3
  2.605     0.9463E-3
  2.606     0.9516E-3
  2.607     0.9569E-3
  2.609     0.9623E-3
  2.610     0.9678E-3
  2.611     0.9732E-3
  2.612     0.9788E-3
  2.613     0.9843E-3
  2.614     0.9900E-3
  2.615     0.9957E-3
  2.616     0.1001E-2
  2.617     0.1007E-2
  2.619     0.1013E-2
  2.620     0.1019E-2
  2.621     0.1025E-2
  2.622     0.1031E-2
  2.623     0.1037E-2
  2.624     0.1043E-2
  2.625     0.1049E-2
  2.626     0.1055E-2
  2.628     0.1061E-2
  2.629     0.1068E-2
  2.630     0.1074E-2
  2.631     0.1081E-2
  2.632     0.1087E-2
  2.633     0.1094E-2
  2.634     0.1100E-2
  2.635     0.1107E-2
  2.636     0.1114E-2
  2.638     0.1120E-2
  2.639     0.1127E-2
  2.640     0.1134E-2
  2.641     0.1141E-2
  2.642     0.1148E-2
  2.643     0.1155E-2
  2.644     0.1162E-2
  2.645     0.1169E-2
  2.646     0.1177E-2
  2.648     0.1184E-2
  2.649     0.1192E-2
  2.650     0.1199E-2
  2.651     0.1207E-2
  2.652     0.1214E-2
  2.653     0.1222E-2
  2.654     0.1230E-2
  2.655     0.1238E-2
  2.657     0.1246E-2
  2.658     0.1254E-2
  2.659     0.1262E-2
  2.660     0.1270E-2
  2.661     0.1278E-2
  2.662     0.1287E-2
  2.663     0.1295E-2
  2.664     0.1303E-2
  2.665     0.1312E-2
  2.667     0.1321E-2
  2.668     0.1329E-2
  2.669     0.1338E-2
  2.670     0.1347E-2
  2.671     0.1356E-2
  2.672     0.1365E-2
  2.673     0.1375E-2
  2.674     0.1384E-2
  2.676     0.1393E-2
  2.677     0.1403E-2
  2.678     0.1412E-2
  2.679     0.1422E-2
  2.680     0.1432E-2
  2.681     0.1442E-2
  2.682     0.1452E-2
  2.683     0.1462E-2
  2.684     0.1472E-2
  2.686     0.1482E-2
  2.687     0.1493E-2
  2.688     0.1503E-2
  2.689     0.1514E-2
  2.690     0.1525E-2
  2.691     0.1536E-2
  2.692     0.1547E-2
  2.693     0.1558E-2
  2.695     0.1569E-2
  2.696     0.1580E-2
  2.697     0.1592E-2
  2.698     0.1603E-2
  2.699     0.1615E-2
  2.700     0.1627E-2
  2.701     0.1639E-2
  2.702     0.1651E-2
  2.703     0.1663E-2
  2.705     0.1676E-2
  2.706     0.1688E-2
  2.707     0.1701E-2
  2.708     0.1714E-2
  2.709     0.1727E-2
  2.710     0.1740E-2
  2.711     0.1753E-2
  2.712     0.1767E-2
  2.714     0.1780E-2
  2.715     0.1794E-2
  2.716     0.1808E-2
  2.717     0.1822E-2
  2.718     0.1836E-2
  2.719     0.1851E-2
  2.720     0.1865E-2
  2.721     0.1880E-2
  2.722     0.1895E-2
  2.724     0.1910E-2
  2.725     0.1925E-2
  2.726     0.1941E-2
  2.727     0.1956E-2
  2.728     0.1972E-2
  2.729     0.1988E-2
  2.730     0.2004E-2
  2.731     0.2021E-2
  2.732     0.2037E-2
  2.734     0.2054E-2
  2.735     0.2071E-2
  2.736     0.2089E-2
  2.737     0.2106E-2
  2.738     0.2124E-2
  2.739     0.2142E-2
  2.740     0.2160E-2
  2.741     0.2178E-2
  2.743     0.2197E-2
  2.744     0.2216E-2
  2.745     0.2235E-2
  2.746     0.2254E-2
  2.747     0.2274E-2
  2.748     0.2294E-2
  2.749     0.2314E-2
  2.750     0.2334E-2
  2.751     0.2355E-2
  2.753     0.2376E-2
  2.754     0.2397E-2
  2.755     0.2419E-2
  2.756     0.2440E-2
  2.757     0.2462E-2
  2.758     0.2485E-2
  2.759     0.2508E-2
  2.760     0.2531E-2
  2.762     0.2554E-2
  2.763     0.2578E-2
  2.764     0.2602E-2
  2.765     0.2626E-2
  2.766     0.2651E-2
  2.767     0.2676E-2
  2.768     0.2701E-2
  2.769     0.2727E-2
  2.770     0.2753E-2
    2.7716     0.0028
    2.7727     0.0028
    2.7738     0.0028
    2.7749     0.0029
    2.7760     0.0029
    2.7772     0.0029
    2.7783     0.0029
    2.7794     0.0030
    2.7805     0.0030
    2.7816     0.0030
    2.7827     0.0031
    2.7839     0.0031
    2.7850     0.0031
    2.7861     0.0032
    2.7872     0.0032
    2.7883     0.0032
    2.7894     0.0033
    2.7906     0.0033
    2.7917     0.0033
    2.7928     0.0034
    2.7939     0.0034
    2.7950     0.0034
    2.7961     0.0035
    2.7973     0.0035
    2.7984     0.0036
    2.7995     0.0036
    2.8006     0.0036
    2.8017     0.0037
    2.8028     0.0037
    2.8040     0.0038
    2.8051     0.0038
    2.8062     0.0038
    2.8073     0.0039
    2.8084     0.0039
    2.8095     0.0040
    2.8107     0.0040
    2.8118     0.0041
    2.8129     0.0041
    2.8140     0.0042
    2.8151     0.0042
    2.8162     0.0043
    2.8174     0.0043
    2.8185     0.0044
    2.8196     0.0044
    2.8207     0.0045
    2.8218     0.0045
    2.8229     0.0046
    2.8241     0.0046
    2.8252     0.0047
    2.8263     0.0048
    2.8274     0.0048
    2.8285     0.0049
    2.8296     0.0050
    2.8308     0.0050
    2.8319     0.0051
    2.8330     0.0052
    2.8341     0.0052
    2.8352     0.0053
    2.8363     0.0054
    2.8375     0.0054
    2.8386     0.0055
    2.8397     0.0056
    2.8408     0.0057
    2.8419     0.0057
    2.8430     0.0058
    2.8442     0.0059
    2.8453     0.0060
    2.8464     0.0061
    2.8475     0.0062
    2.8486     0.0063
    2.8497     0.0064
    2.8509     0.0064
    2.8520     0.0065
    2.8531     0.0066
    2.8542     0.0067
    2.8553     0.0068
    2.8564     0.0070
    2.8576     0.0071
    2.8587     0.0072
    2.8598     0.0073
    2.8609     0.0074
    2.8620     0.0075
    2.8632     0.0076
    2.8643     0.0078
    2.8654     0.0079
    2.8665     0.0080
    2.8676     0.0082
    2.8687     0.0083
    2.8699     0.0085
    2.8710     0.0086
    2.8721     0.0088
    2.8732     0.0089
    2.8743     0.0091
    2.8754     0.0092
    2.8766     0.0094
    2.8777     0.0096
    2.8788     0.0098
    2.8799     0.0099
   2.88102    0.01014
   2.88214    0.01033
   2.88325    0.01054
   2.88437    0.01075
   2.88549    0.01096
   2.88660    0.01118
   2.88772    0.01141
   2.88884    0.01165
   2.88995    0.01190
   2.89107    0.01215
   2.89219    0.01241
   2.89330    0.01268
   2.89442    0.01297
   2.89554    0.01326
   2.89665    0.01356
   2.89777    0.01387
   2.89889    0.01420
   2.90000    0.01454
   2.90112    0.01489
   2.90224    0.01526
   2.90335    0.01564
   2.90447    0.01604
   2.90559    0.01646
   2.90670    0.01689
   2.90782    0.01735
   2.90894    0.01782
   2.91006    0.01832
   2.91117    0.01884
   2.91229    0.01939
   2.91341    0.01997
   2.91452    0.02058
   2.91564    0.02122
   2.91676    0.02190
   2.91787    0.02262
   2.91899    0.02339
   2.92011    0.02420
   2.92122    0.02506
   2.92234    0.02599
   2.92346    0.02698
   2.92457    0.02804
   2.92569    0.02918
   2.92681    0.03041
   2.92792    0.03174
   2.92904    0.03318
   2.93016    0.03474
   2.93127    0.03644
   2.93239    0.03830
   2.93351    0.04032
   2.93462    0.04252
   2.93574    0.04491
   2.93686    0.04749
   2.93798    0.05027
   2.93909    0.05321
   2.94021    0.05628
   2.94133    0.05941
   2.94244    0.06249
   2.94356    0.06541
   2.94468    0.06804
   2.94579    0.07026
   2.94691    0.07201
   2.94803    0.07328
   2.94914    0.07413
   2.95026    0.07467
   2.95138    0.07506
   2.95249    0.07543
   2.95361    0.07591
   2.95473    0.07660
   2.95584    0.07759
   2.95696    0.07892
   2.95808    0.08063
   2.95919    0.08275
   2.96031    0.08531
   2.96143    0.08833
   2.96254    0.09184
   2.96366    0.09586
  2.964778   0.100421
  2.965895   0.105571
  2.967012   0.111345
  2.968129   0.117788
  2.969245   0.124937
  2.970362   0.132824
  2.971479   0.141461
  2.972595   0.150834
  2.973712   0.160891
  2.974829   0.171527
  2.975946   0.182594
  2.977063   0.193902
  2.978180   0.205273
  2.979296   0.216572
  2.980413   0.227786
  2.981530   0.239042
  2.982647   0.250630
  2.983763   0.262945
  2.984880   0.276460
  2.985997   0.291648
  2.987114   0.308966
  2.988231   0.328820
  2.989348   0.351593
  2.990464   0.377622
  2.991581   0.407254
  2.992698   0.440815
  2.993815   0.478651
  2.994931   0.521045
  2.996048   0.568188
  2.997165   0.620042
  2.998282   0.676139
  2.999399   0.735450
  3.000515   0.796109
  3.001632   0.855363
  3.002749   0.909527
  3.003866   0.954362
  3.004982   0.985628
  3.006099   1.000000
  3.007216   0.995837
  3.008333   0.973657
  3.009450   0.936002
  3.010567   0.886757
  3.011683   0.830321
  3.012800   0.770773
  3.013917   0.711472
  3.015034   0.654810
  3.016150   0.602352
  3.017267   0.554930
  3.018384   0.512868
  3.019501   0.476162
  3.020618   0.444557
  3.021734   0.417675
  3.022851   0.395015
  3.023968   0.376007
  3.025085   0.359985
  3.026202   0.346222
  3.027318   0.333937
  3.028435   0.322370
  3.029552   0.310853
  3.030669   0.298915
  3.031786   0.286320
  3.032902   0.273074
  3.034019   0.259346
  3.035136   0.245388
  3.036253   0.231441
  3.037369   0.217708
  3.038486   0.204340
  3.039603   0.191454
  3.040720   0.179156
  3.041837   0.167533
  3.042953   0.156665
  3.044070   0.146600
  3.045187   0.137367
  3.046304   0.128963
  3.047421   0.121370
  3.048537   0.114550
  3.049654   0.108460
  3.050771   0.103051
   3.05189    0.09827
   3.05300    0.09408
   3.05412    0.09041
   3.05524    0.08722
   3.05635    0.08444
   3.05747    0.08201
   3.05859    0.07982
   3.05971    0.07779
   3.06082    0.07581
   3.06194    0.07376
   3.06306    0.07157
   3.06417    0.06918
   3.06529    0.06659
   3.06641    0.06382
   3.06752    0.06096
   3.06864    0.05806
   3.06976    0.05519
   3.07087    0.05243
   3.07199    0.04979
   3.07311    0.04731
   3.07422    0.04499
   3.07534    0.04284
   3.07646    0.04084
   3.07757    0.03900
   3.07869    0.03729
   3.07981    0.03570
   3.08092    0.03423
   3.08204    0.03287
   3.08316    0.03159
   3.08427    0.03040
   3.08539    0.02929
   3.08651    0.02825
   3.08763    0.02727
   3.08874    0.02635
   3.08986    0.02548
   3.09098    0.02467
   3.09209    0.02389
   3.09321    0.02316
   3.09433    0.02246
   3.09544    0.02180
   3.09656    0.02117
   3.09768    0.02056
   3.09879    0.01999
   3.09991    0.01945
   3.10103    0.01892
   3.10214    0.01842
   3.10326    0.01794
   3.10438    0.01749
   3.10549    0.01705
   3.10661    0.01662
   3.10773    0.01622
   3.10884    0.01583
   3.10996    0.01545
   3.11108    0.01509
   3.11219    0.01474
   3.11331    0.01441
   3.11443    0.01408
   3.11555    0.01377
   3.11666    0.01347
   3.11778    0.01318
   3.11890    0.01290
   3.12001    0.01262
   3.12113    0.01236
   3.12225    0.01211
   3.12336    0.01186
   3.12448    0.01162
   3.12560    0.01139
   3.12671    0.01116
   3.12783    0.01095
   3.12895    0.01074
   3.13006    0.01053
   3.13118    0.01033
   3.13230    0.01014
    3.1334     0.0100
    3.1345     0.0098
    3.1356     0.0096
    3.1368     0.0094
    3.1379     0.0093
    3.1390     0.0091
    3.1401     0.0089
    3.1412     0.0088
    3.1423     0.0086
    3.1435     0.0085
    3.1446     0.0083
    3.1457     0.0082
    3.1468     0.0081
    3.1479     0.0079
    3.1490     0.0078
    3.1502     0.0077
    3.1513     0.0076
    3.1524     0.0074
    3.1535     0.0073
    3.1546     0.0072
    3.1557     0.0071
    3.1569     0.0070
    3.1580     0.0069
    3.1591     0.0068
    3.1602     0.0067
    3.1613     0.0066
    3.1625     0.0065
    3.1636     0.0064
    3.1647     0.0063
    3.1658     0.0062
    3.1669     0.0061
    3.1680     0.0060
    3.1692     0.0059
    3.1703     0.0059
    3.1714     0.0058
    3.1725     0.0057
    3.1736     0.0056
    3.1747     0.0055
    3.1759     0.0055
    3.1770     0.0054
    3.1781     0.0053
    3.1792     0.0052
    3.1803     0.0052
    3.1814     0.0051
    3.1826     0.0050
    3.1837     0.0050
    3.1848     0.0049
    3.1859     0.0049
    3.1870     0.0048
    3.1881     0.0047
    3.1893     0.0047
    3.1904     0.0046
    3.1915     0.0046
    3.1926     0.0045
    3.1937     0.0044
    3.1948     0.0044
    3.1960     0.0043
    3.1971     0.0043
    3.1982     0.0042
    3.1993     0.0042
    3.2004     0.0041
    3.2015     0.0041
    3.2027     0.0040
    3.2038     0.0040
    3.2049     0.0040
    3.2060     0.0039
    3.2071     0.0039
    3.2082     0.0038
    3.2094     0.0038
    3.2105     0.0037
    3.2116     0.0037
    3.2127     0.0037
    3.2138     0.0036
    3.2149     0.0036
    3.2161     0.0035
    3.2172     0.0035
    3.2183     0.0035
    3.2194     0.0034
    3.2205     0.0034
    3.2216     0.0033
    3.2228     0.0033
    3.2239     0.0033
    3.2250     0.0032
  3.226     0.3212E-2
  3.227     0.3179E-2
  3.228     0.3147E-2
  3.229     0.3115E-2
  3.231     0.3083E-2
  3.232     0.3052E-2
  3.233     0.3022E-2
  3.234     0.2992E-2
  3.235     0.2962E-2
  3.236     0.2933E-2
  3.237     0.2904E-2
  3.238     0.2876E-2
  3.240     0.2848E-2
  3.241     0.2821E-2
  3.242     0.2794E-2
  3.243     0.2767E-2
  3.244     0.2741E-2
  3.245     0.2715E-2
  3.246     0.2689E-2
  3.247     0.2664E-2
  3.248     0.2639E-2
  3.250     0.2615E-2
  3.251     0.2590E-2
  3.252     0.2567E-2
  3.253     0.2543E-2
  3.254     0.2520E-2
  3.255     0.2497E-2
  3.256     0.2474E-2
  3.257     0.2452E-2
  3.258     0.2430E-2
  3.260     0.2409E-2
  3.261     0.2387E-2
  3.262     0.2366E-2
  3.263     0.2345E-2
  3.264     0.2325E-2
  3.265     0.2305E-2
  3.266     0.2285E-2
  3.267     0.2265E-2
  3.269     0.2245E-2
  3.270     0.2226E-2
  3.271     0.2207E-2
  3.272     0.2188E-2
  3.273     0.2170E-2
  3.274     0.2152E-2
  3.275     0.2134E-2
  3.276     0.2116E-2
  3.277     0.2098E-2
  3.279     0.2081E-2
  3.280     0.2064E-2
  3.281     0.2047E-2
  3.282     0.2030E-2
  3.283     0.2013E-2
  3.284     0.1997E-2
  3.285     0.1981E-2
  3.286     0.1965E-2
  3.288     0.1949E-2
  3.289     0.1934E-2
  3.290     0.1918E-2
  3.291     0.1903E-2
  3.292     0.1888E-2
  3.293     0.1873E-2
  3.294     0.1859E-2
  3.295     0.1844E-2
  3.296     0.1830E-2
  3.298     0.1816E-2
  3.299     0.1802E-2
  3.300     0.1788E-2
  3.301     0.1774E-2
  3.302     0.1761E-2
  3.303     0.1748E-2
  3.304     0.1734E-2
  3.305     0.1721E-2
  3.307     0.1708E-2
  3.308     0.1696E-2
  3.309     0.1683E-2
  3.310     0.1671E-2
  3.311     0.1658E-2
  3.312     0.1646E-2
  3.313     0.1634E-2
  3.314     0.1622E-2
  3.315     0.1610E-2
  3.317     0.1599E-2
  3.318     0.1587E-2
  3.319     0.1576E-2
  3.320     0.1564E-2
  3.321     0.1553E-2
  3.322     0.1542E-2
  3.323     0.1531E-2
  3.324     0.1520E-2
  3.326     0.1510E-2
  3.327     0.1499E-2
  3.328     0.1489E-2
  3.329     0.1478E-2
  3.330     0.1468E-2
  3.331     0.1458E-2
  3.332     0.1448E-2
  3.333     0.1438E-2
  3.334     0.1428E-2
  3.336     0.1418E-2
  3.337     0.1408E-2
  3.338     0.1399E-2
  3.339     0.1389E-2
  3.340     0.1380E-2
  3.341     0.1371E-2
  3.342     0.1362E-2
  3.343     0.1353E-2
  3.344     0.1344E-2
  3.346     0.1335E-2
  3.347     0.1326E-2
  3.348     0.1317E-2
  3.349     0.1309E-2
  3.350     0.1300E-2
  3.351     0.1292E-2
  3.352     0.1283E-2
  3.353     0.1275E-2
  3.355     0.1267E-2
  3.356     0.1258E-2
  3.357     0.1250E-2
  3.358     0.1242E-2
  3.359     0.1235E-2
  3.360     0.1227E-2
  3.361     0.1219E-2
  3.362     0.1211E-2
  3.363     0.1204E-2
  3.365     0.1196E-2
  3.366     0.1189E-2
  3.367     0.1181E-2
  3.368     0.1174E-2
  3.369     0.1167E-2
  3.370     0.1159E-2
  3.371     0.1152E-2
  3.372     0.1145E-2
  3.374     0.1138E-2
  3.375     0.1131E-2
  3.376     0.1124E-2
  3.377     0.1118E-2
  3.378     0.1111E-2
  3.379     0.1104E-2
  3.380     0.1098E-2
  3.381     0.1091E-2
  3.382     0.1084E-2
  3.384     0.1078E-2
  3.385     0.1072E-2
  3.386     0.1065E-2
  3.387     0.1059E-2
  3.388     0.1053E-2
  3.389     0.1047E-2
  3.390     0.1040E-2
  3.391     0.1034E-2
  3.393     0.1028E-2
  3.394     0.1022E-2
  3.395     0.1017E-2
  3.396     0.1011E-2
  3.397     0.1005E-2
  3.398     0.9992E-3
  3.399     0.9934E-3
  3.400     0.9878E-3
  3.401     0.9822E-3
  3.403     0.9766E-3
  3.404     0.9711E-3
  3.405     0.9656E-3
  3.406     0.9602E-3
  3.407     0.9549E-3
  3.408     0.9495E-3
  3.409     0.9442E-3
  3.410     0.9390E-3
  3.411     0.9338E-3
  3.413     0.9286E-3
  3.414     0.9235E-3
  3.415     0.9185E-3
  3.416     0.9134E-3
  3.417     0.9084E-3
  3.418     0.9035E-3
  3.419     0.8986E-3
  3.420     0.8937E-3
  3.422     0.8889E-3
  3.423     0.8841E-3
  3.424     0.8794E-3
  3.425     0.8747E-3
  3.426     0.8700E-3
  3.427     0.8654E-3
  3.428     0.8608E-3
  3.429     0.8562E-3
  3.430     0.8517E-3
  3.432     0.8472E-3
  3.433     0.8427E-3
  3.434     0.8383E-3
  3.435     0.8339E-3
  3.436     0.8296E-3
  3.437     0.8253E-3
  3.438     0.8210E-3
  3.439     0.8167E-3
  3.441     0.8125E-3
  3.442     0.8083E-3
  3.443     0.8042E-3
  3.444     0.8001E-3
  3.445     0.7960E-3
  3.446     0.7919E-3
  3.447     0.7879E-3
  3.448     0.7839E-3
  3.449     0.7799E-3
  3.451     0.7760E-3
  3.452     0.7721E-3
  3.453     0.7682E-3
  3.454     0.7644E-3
  3.455     0.7605E-3
  3.456     0.7568E-3
  3.457     0.7530E-3
  3.458     0.7493E-3
  3.460     0.7456E-3
  3.461     0.7419E-3
  3.462     0.7382E-3
  3.463     0.7346E-3
  3.464     0.7310E-3
  3.465     0.7274E-3
  3.466     0.7239E-3
  3.467     0.7204E-3
  3.468     0.7169E-3
  3.470     0.7134E-3
  3.471     0.7100E-3
  3.472     0.7066E-3
  3.473     0.7032E-3
  3.474     0.6998E-3
  3.475     0.6965E-3
  3.476     0.6931E-3
  3.477     0.6898E-3
  3.479     0.6866E-3
  3.480     0.6833E-3
  3.481     0.6801E-3
  3.482     0.6769E-3
  3.483     0.6737E-3
  3.484     0.6705E-3
  3.485     0.6674E-3
  3.486     0.6643E-3
  3.487     0.6612E-3
  3.489     0.6581E-3
  3.490     0.6551E-3
  3.491     0.6520E-3
  3.492     0.6490E-3
  3.493     0.6461E-3
  3.494     0.6431E-3
  3.495     0.6401E-3
  3.496     0.6372E-3
  3.497     0.6343E-3
  3.499     0.6314E-3
  3.500     0.6286E-3
  3.501     0.6257E-3
  3.502     0.6229E-3
  3.503     0.6201E-3
  3.504     0.6173E-3
  3.505     0.6145E-3
  3.506     0.6118E-3
  3.508     0.6090E-3
  3.509     0.6063E-3
  3.510     0.6036E-3
  3.511     0.6009E-3
  3.512     0.5983E-3
  3.513     0.5956E-3
  3.514     0.5930E-3
  3.515     0.5904E-3
  3.516     0.5878E-3
  3.518     0.5852E-3
  3.519     0.5827E-3
  3.520     0.5801E-3
  3.521     0.5776E-3
  3.522     0.5751E-3
  3.523     0.5726E-3
  3.524     0.5701E-3
  3.525     0.5677E-3
  3.527     0.5652E-3
  3.528     0.5628E-3
  3.529     0.5604E-3
  3.530     0.5580E-3
  3.531     0.5556E-3
  3.532     0.5532E-3
  3.533     0.5509E-3
  3.534     0.5486E-3
  3.535     0.5462E-3
  3.537     0.5439E-3
  3.538     0.5416E-3
  3.539     0.5394E-3
  3.540     0.5371E-3
  3.541     0.5348E-3
  3.542     0.5326E-3
  3.543     0.5304E-3
  3.544     0.5282E-3
  3.546     0.5260E-3
  3.547     0.5238E-3
  3.548     0.5216E-3
  3.549     0.5195E-3
  3.550     0.5174E-3
  3.551     0.5152E-3
  3.552     0.5131E-3
  3.553     0.5110E-3
  3.554     0.5089E-3
  3.556     0.5069E-3
  3.557     0.5048E-3
  3.558     0.5027E-3
  3.559     0.5007E-3
  3.560     0.4987E-3
  3.561     0.4967E-3
  3.562     0.4947E-3
# 
# 06/19/2019 at 14:22 YPP @ br018.pvt.bridges.psc.edu [start]
# 06/19/2019 at 14:22                                 [end]
#  
# Timing   [Min/Max/Average]: 02s/02s/02s
#
# .-Input file : amp.in
# | excitons                     # [R] Excitons
# | amplitude                    # [R] Amplitude
# | BoseTemp=  0.02585     eV    # Bosonic Temperature
# | States= "1 - 20"             # Index of the BS state(s)
# | #DipWeight                   #  Weight the contribution to the exciton WFs with the dipoles
# | Degen_Step=0.1000E-4   eV    # Maximum energy separation of two degenerate states
