#  __      __   ______   __       __  _______    ______     
# |  \    /  \ /      \ |  \     /  \|       \  /      \    
#  \$$\  /  $$|  $$$$$$\| $$\   /  $$| $$$$$$$\|  $$$$$$\   
#   \$$\/  $$ | $$__| $$| $$$\ /  $$$| $$__/ $$| $$  | $$   
#    \$$  $$  | $$    $$| $$$$\  $$$$| $$    $$| $$  | $$   
#     \$$$$   | $$$$$$$$| $$\$$ $$ $$| $$$$$$$\| $$  | $$   
#     | $$    | $$  | $$| $$ \$$$| $$| $$__/ $$| $$__/ $$   
#     | $$    | $$  | $$| $$  \$ | $$| $$    $$ \$$    $$   
#      \$$     \$$   \$$ \$$      \$$ \$$$$$$$   \$$$$$$    
#                                                           
#              GPL Version 4.1.4 Revision 76                
#                        MPI Build                          
#                http://www.yambo-code.org                  
#
# BSK|Identifier              :7677
#    |Dimension               :3278
#    |Bands                   :534 - 614
#    |Exchange           [res]: yes
#    |Correlation        [res]: no
#    |Kernel`s coupling       : no
#    |Exchange           [cpl]: no
#    |Correlation        [cpl]: no
#    |W interaction is bare   : no
#    |ALDA kernel in R-space  : no
#    |RL vectors    [exchange]:55207
#    |E/h energy range    [ev]:-1.000000 - -1.000000
#    |Coupling range     [o/o]: 100.0000 -  100.0000
#
# Electron-Hole pairs that contributes to Excitonic State 5 more than 5%
#
#  E    [eV]  Amplitude
#  
  1.529     0.2186E-3
  1.531     0.2193E-3
  1.533     0.2200E-3
  1.535     0.2207E-3
  1.537     0.2214E-3
  1.538     0.2221E-3
  1.540     0.2228E-3
  1.542     0.2235E-3
  1.544     0.2242E-3
  1.546     0.2250E-3
  1.548     0.2257E-3
  1.550     0.2264E-3
  1.551     0.2272E-3
  1.553     0.2279E-3
  1.555     0.2287E-3
  1.557     0.2294E-3
  1.559     0.2302E-3
  1.561     0.2310E-3
  1.563     0.2317E-3
  1.564     0.2325E-3
  1.566     0.2333E-3
  1.568     0.2341E-3
  1.570     0.2349E-3
  1.572     0.2356E-3
  1.574     0.2364E-3
  1.576     0.2372E-3
  1.577     0.2380E-3
  1.579     0.2389E-3
  1.581     0.2397E-3
  1.583     0.2405E-3
  1.585     0.2413E-3
  1.587     0.2422E-3
  1.589     0.2430E-3
  1.590     0.2438E-3
  1.592     0.2447E-3
  1.594     0.2455E-3
  1.596     0.2464E-3
  1.598     0.2473E-3
  1.600     0.2481E-3
  1.602     0.2490E-3
  1.603     0.2499E-3
  1.605     0.2508E-3
  1.607     0.2517E-3
  1.609     0.2526E-3
  1.611     0.2535E-3
  1.613     0.2544E-3
  1.614     0.2553E-3
  1.616     0.2562E-3
  1.618     0.2571E-3
  1.620     0.2581E-3
  1.622     0.2590E-3
  1.624     0.2599E-3
  1.626     0.2609E-3
  1.627     0.2619E-3
  1.629     0.2628E-3
  1.631     0.2638E-3
  1.633     0.2648E-3
  1.635     0.2658E-3
  1.637     0.2668E-3
  1.639     0.2678E-3
  1.640     0.2688E-3
  1.642     0.2698E-3
  1.644     0.2708E-3
  1.646     0.2718E-3
  1.648     0.2729E-3
  1.650     0.2739E-3
  1.652     0.2750E-3
  1.653     0.2760E-3
  1.655     0.2771E-3
  1.657     0.2782E-3
  1.659     0.2793E-3
  1.661     0.2804E-3
  1.663     0.2815E-3
  1.665     0.2826E-3
  1.666     0.2837E-3
  1.668     0.2848E-3
  1.670     0.2860E-3
  1.672     0.2871E-3
  1.674     0.2883E-3
  1.676     0.2894E-3
  1.678     0.2906E-3
  1.679     0.2918E-3
  1.681     0.2930E-3
  1.683     0.2942E-3
  1.685     0.2954E-3
  1.687     0.2966E-3
  1.689     0.2979E-3
  1.691     0.2991E-3
  1.692     0.3004E-3
  1.694     0.3016E-3
  1.696     0.3029E-3
  1.698     0.3042E-3
  1.700     0.3055E-3
  1.702     0.3068E-3
  1.703     0.3081E-3
  1.705     0.3095E-3
  1.707     0.3108E-3
  1.709     0.3122E-3
  1.711     0.3136E-3
  1.713     0.3149E-3
  1.715     0.3163E-3
  1.716     0.3178E-3
  1.718     0.3192E-3
  1.720     0.3206E-3
  1.722     0.3221E-3
  1.724     0.3236E-3
  1.726     0.3250E-3
  1.728     0.3265E-3
  1.729     0.3280E-3
  1.731     0.3296E-3
  1.733     0.3311E-3
  1.735     0.3327E-3
  1.737     0.3343E-3
  1.739     0.3359E-3
  1.741     0.3375E-3
  1.742     0.3391E-3
  1.744     0.3407E-3
  1.746     0.3424E-3
  1.748     0.3441E-3
  1.750     0.3458E-3
  1.752     0.3475E-3
  1.754     0.3493E-3
  1.755     0.3510E-3
  1.757     0.3528E-3
  1.759     0.3546E-3
  1.761     0.3564E-3
  1.763     0.3583E-3
  1.765     0.3602E-3
  1.767     0.3621E-3
  1.768     0.3640E-3
  1.770     0.3659E-3
  1.772     0.3679E-3
  1.774     0.3699E-3
  1.776     0.3719E-3
  1.778     0.3739E-3
  1.780     0.3760E-3
  1.781     0.3781E-3
  1.783     0.3802E-3
  1.785     0.3824E-3
  1.787     0.3846E-3
  1.789     0.3868E-3
  1.791     0.3891E-3
  1.792     0.3913E-3
  1.794     0.3937E-3
  1.796     0.3960E-3
  1.798     0.3984E-3
  1.800     0.4008E-3
  1.802     0.4033E-3
  1.804     0.4058E-3
  1.805     0.4083E-3
  1.807     0.4109E-3
  1.809     0.4135E-3
  1.811     0.4162E-3
  1.813     0.4189E-3
  1.815     0.4217E-3
  1.817     0.4245E-3
  1.818     0.4273E-3
  1.820     0.4302E-3
  1.822     0.4332E-3
  1.824     0.4362E-3
  1.826     0.4393E-3
  1.828     0.4424E-3
  1.830     0.4456E-3
  1.831     0.4488E-3
  1.833     0.4521E-3
  1.835     0.4555E-3
  1.837     0.4589E-3
  1.839     0.4624E-3
  1.841     0.4660E-3
  1.843     0.4697E-3
  1.844     0.4734E-3
  1.846     0.4772E-3
  1.848     0.4811E-3
  1.850     0.4851E-3
  1.852     0.4892E-3
  1.854     0.4933E-3
  1.856     0.4976E-3
  1.857     0.5020E-3
  1.859     0.5065E-3
  1.861     0.5110E-3
  1.863     0.5157E-3
  1.865     0.5206E-3
  1.867     0.5255E-3
  1.869     0.5306E-3
  1.870     0.5358E-3
  1.872     0.5411E-3
  1.874     0.5466E-3
  1.876     0.5523E-3
  1.878     0.5581E-3
  1.880     0.5641E-3
  1.881     0.5702E-3
  1.883     0.5766E-3
  1.885     0.5831E-3
  1.887     0.5899E-3
  1.889     0.5968E-3
  1.891     0.6040E-3
  1.893     0.6114E-3
  1.894     0.6191E-3
  1.896     0.6270E-3
  1.898     0.6352E-3
  1.900     0.6437E-3
  1.902     0.6525E-3
  1.904     0.6616E-3
  1.906     0.6711E-3
  1.907     0.6809E-3
  1.909     0.6912E-3
  1.911     0.7018E-3
  1.913     0.7128E-3
  1.915     0.7243E-3
  1.917     0.7363E-3
  1.919     0.7489E-3
  1.920     0.7619E-3
  1.922     0.7756E-3
  1.924     0.7898E-3
  1.926     0.8048E-3
  1.928     0.8204E-3
  1.930     0.8369E-3
  1.932     0.8541E-3
  1.933     0.8722E-3
  1.935     0.8913E-3
  1.937     0.9113E-3
  1.939     0.9325E-3
  1.941     0.9548E-3
  1.943     0.9785E-3
  1.945     0.1003E-2
  1.946     0.1030E-2
  1.948     0.1058E-2
  1.950     0.1088E-2
  1.952     0.1120E-2
  1.954     0.1153E-2
  1.956     0.1190E-2
  1.958     0.1228E-2
  1.959     0.1269E-2
  1.961     0.1314E-2
  1.963     0.1361E-2
  1.965     0.1412E-2
  1.967     0.1468E-2
  1.969     0.1527E-2
  1.970     0.1592E-2
  1.972     0.1662E-2
  1.974     0.1737E-2
  1.976     0.1820E-2
  1.978     0.1911E-2
    1.9797     0.0020
    1.9816     0.0021
    1.9835     0.0022
    1.9853     0.0024
    1.9872     0.0025
    1.9890     0.0027
    1.9909     0.0029
    1.9927     0.0031
    1.9946     0.0033
    1.9964     0.0035
    1.9983     0.0038
    2.0001     0.0041
    2.0020     0.0045
    2.0039     0.0049
    2.0057     0.0053
    2.0076     0.0058
    2.0094     0.0064
    2.0113     0.0070
    2.0131     0.0076
    2.0150     0.0084
    2.0168     0.0092
    2.0187     0.0100
   2.02054    0.01079
   2.02239    0.01155
   2.02425    0.01220
   2.02610    0.01270
   2.02796    0.01299
   2.02981    0.01304
   2.03166    0.01284
   2.03352    0.01241
   2.03537    0.01181
   2.03723    0.01109
   2.03908    0.01030
    2.0409     0.0095
    2.0428     0.0087
    2.0446     0.0079
    2.0465     0.0072
    2.0484     0.0066
    2.0502     0.0060
    2.0521     0.0055
    2.0539     0.0051
    2.0558     0.0047
    2.0576     0.0043
    2.0595     0.0040
    2.0613     0.0037
    2.0632     0.0034
    2.0650     0.0032
    2.0669     0.0030
    2.0687     0.0028
    2.0706     0.0027
    2.0725     0.0025
    2.0743     0.0024
    2.0762     0.0023
    2.0780     0.0022
  2.080     0.2076E-2
  2.082     0.1988E-2
  2.084     0.1908E-2
  2.085     0.1834E-2
  2.087     0.1767E-2
  2.089     0.1706E-2
  2.091     0.1650E-2
  2.093     0.1598E-2
  2.095     0.1550E-2
  2.097     0.1506E-2
  2.098     0.1466E-2
  2.100     0.1429E-2
  2.102     0.1394E-2
  2.104     0.1362E-2
  2.106     0.1333E-2
  2.108     0.1305E-2
  2.110     0.1280E-2
  2.111     0.1256E-2
  2.113     0.1234E-2
  2.115     0.1214E-2
  2.117     0.1195E-2
  2.119     0.1177E-2
  2.121     0.1161E-2
  2.123     0.1146E-2
  2.124     0.1131E-2
  2.126     0.1118E-2
  2.128     0.1106E-2
  2.130     0.1094E-2
  2.132     0.1084E-2
  2.134     0.1074E-2
  2.135     0.1065E-2
  2.137     0.1056E-2
  2.139     0.1048E-2
  2.141     0.1041E-2
  2.143     0.1034E-2
  2.145     0.1028E-2
  2.147     0.1022E-2
  2.148     0.1016E-2
  2.150     0.1012E-2
  2.152     0.1007E-2
  2.154     0.1003E-2
  2.156     0.9992E-3
  2.158     0.9959E-3
  2.160     0.9928E-3
  2.161     0.9901E-3
  2.163     0.9877E-3
  2.165     0.9856E-3
  2.167     0.9837E-3
  2.169     0.9821E-3
  2.171     0.9808E-3
  2.173     0.9797E-3
  2.174     0.9789E-3
  2.176     0.9783E-3
  2.178     0.9779E-3
  2.180     0.9777E-3
  2.182     0.9777E-3
  2.184     0.9779E-3
  2.186     0.9783E-3
  2.187     0.9788E-3
  2.189     0.9796E-3
  2.191     0.9805E-3
  2.193     0.9816E-3
  2.195     0.9828E-3
  2.197     0.9842E-3
  2.199     0.9857E-3
  2.200     0.9874E-3
  2.202     0.9892E-3
  2.204     0.9912E-3
  2.206     0.9933E-3
  2.208     0.9955E-3
  2.210     0.9979E-3
  2.212     0.1000E-2
  2.213     0.1003E-2
  2.215     0.1006E-2
  2.217     0.1009E-2
  2.219     0.1011E-2
  2.221     0.1015E-2
  2.223     0.1018E-2
  2.224     0.1021E-2
  2.226     0.1024E-2
  2.228     0.1028E-2
  2.230     0.1032E-2
  2.232     0.1035E-2
  2.234     0.1039E-2
  2.236     0.1043E-2
  2.237     0.1047E-2
  2.239     0.1051E-2
  2.241     0.1055E-2
  2.243     0.1060E-2
  2.245     0.1064E-2
  2.247     0.1069E-2
  2.249     0.1073E-2
  2.250     0.1078E-2
  2.252     0.1083E-2
  2.254     0.1088E-2
  2.256     0.1093E-2
  2.258     0.1098E-2
  2.260     0.1103E-2
  2.262     0.1108E-2
  2.263     0.1113E-2
  2.265     0.1119E-2
  2.267     0.1124E-2
  2.269     0.1130E-2
  2.271     0.1136E-2
  2.273     0.1142E-2
  2.275     0.1147E-2
  2.276     0.1153E-2
  2.278     0.1160E-2
  2.280     0.1166E-2
  2.282     0.1172E-2
  2.284     0.1178E-2
  2.286     0.1185E-2
  2.288     0.1191E-2
  2.289     0.1198E-2
  2.291     0.1205E-2
  2.293     0.1212E-2
  2.295     0.1219E-2
  2.297     0.1226E-2
  2.299     0.1233E-2
  2.301     0.1240E-2
  2.302     0.1247E-2
  2.304     0.1255E-2
  2.306     0.1262E-2
  2.308     0.1270E-2
  2.310     0.1278E-2
  2.312     0.1286E-2
  2.313     0.1294E-2
  2.315     0.1302E-2
  2.317     0.1310E-2
  2.319     0.1318E-2
  2.321     0.1326E-2
  2.323     0.1335E-2
  2.325     0.1344E-2
  2.326     0.1352E-2
  2.328     0.1361E-2
  2.330     0.1370E-2
  2.332     0.1379E-2
  2.334     0.1388E-2
  2.336     0.1397E-2
  2.338     0.1407E-2
  2.339     0.1416E-2
  2.341     0.1426E-2
  2.343     0.1436E-2
  2.345     0.1446E-2
  2.347     0.1456E-2
  2.349     0.1466E-2
  2.351     0.1476E-2
  2.352     0.1486E-2
  2.354     0.1497E-2
  2.356     0.1508E-2
  2.358     0.1518E-2
  2.360     0.1529E-2
  2.362     0.1540E-2
  2.364     0.1552E-2
  2.365     0.1563E-2
  2.367     0.1574E-2
  2.369     0.1586E-2
  2.371     0.1598E-2
  2.373     0.1610E-2
  2.375     0.1622E-2
  2.377     0.1634E-2
  2.378     0.1647E-2
  2.380     0.1659E-2
  2.382     0.1672E-2
  2.384     0.1685E-2
  2.386     0.1698E-2
  2.388     0.1711E-2
  2.389     0.1725E-2
  2.391     0.1738E-2
  2.393     0.1752E-2
  2.395     0.1766E-2
  2.397     0.1780E-2
  2.399     0.1794E-2
  2.401     0.1809E-2
  2.402     0.1823E-2
  2.404     0.1838E-2
  2.406     0.1853E-2
  2.408     0.1869E-2
  2.410     0.1884E-2
  2.412     0.1900E-2
  2.414     0.1916E-2
  2.415     0.1932E-2
  2.417     0.1948E-2
  2.419     0.1965E-2
  2.421     0.1982E-2
  2.423     0.1999E-2
  2.425     0.2016E-2
  2.427     0.2033E-2
  2.428     0.2051E-2
  2.430     0.2069E-2
  2.432     0.2087E-2
  2.434     0.2106E-2
  2.436     0.2125E-2
  2.438     0.2144E-2
  2.440     0.2163E-2
  2.441     0.2182E-2
  2.443     0.2202E-2
  2.445     0.2222E-2
  2.447     0.2243E-2
  2.449     0.2263E-2
  2.451     0.2284E-2
  2.453     0.2306E-2
  2.454     0.2327E-2
  2.456     0.2349E-2
  2.458     0.2372E-2
  2.460     0.2394E-2
  2.462     0.2417E-2
  2.464     0.2440E-2
  2.466     0.2464E-2
    2.4674     0.0025
    2.4692     0.0025
    2.4711     0.0025
    2.4729     0.0026
    2.4748     0.0026
    2.4766     0.0026
    2.4785     0.0026
    2.4803     0.0027
    2.4822     0.0027
    2.4841     0.0027
    2.4859     0.0027
    2.4878     0.0028
    2.4896     0.0028
    2.4915     0.0028
    2.4933     0.0029
    2.4952     0.0029
    2.4970     0.0029
    2.4989     0.0030
    2.5007     0.0030
    2.5026     0.0030
    2.5045     0.0031
    2.5063     0.0031
    2.5082     0.0031
    2.5100     0.0032
    2.5119     0.0032
    2.5137     0.0032
    2.5156     0.0033
    2.5174     0.0033
    2.5193     0.0033
    2.5211     0.0034
    2.5230     0.0034
    2.5248     0.0035
    2.5267     0.0035
    2.5286     0.0035
    2.5304     0.0036
    2.5323     0.0036
    2.5341     0.0037
    2.5360     0.0037
    2.5378     0.0038
    2.5397     0.0038
    2.5415     0.0038
    2.5434     0.0039
    2.5452     0.0039
    2.5471     0.0040
    2.5489     0.0040
    2.5508     0.0041
    2.5527     0.0041
    2.5545     0.0042
    2.5564     0.0042
    2.5582     0.0043
    2.5601     0.0044
    2.5619     0.0044
    2.5638     0.0045
    2.5656     0.0045
    2.5675     0.0046
    2.5693     0.0047
    2.5712     0.0047
    2.5731     0.0048
    2.5749     0.0049
    2.5768     0.0049
    2.5786     0.0050
    2.5805     0.0051
    2.5823     0.0051
    2.5842     0.0052
    2.5860     0.0053
    2.5879     0.0054
    2.5897     0.0054
    2.5916     0.0055
    2.5934     0.0056
    2.5953     0.0057
    2.5972     0.0058
    2.5990     0.0059
    2.6009     0.0059
    2.6027     0.0060
    2.6046     0.0061
    2.6064     0.0062
    2.6083     0.0063
    2.6101     0.0064
    2.6120     0.0065
    2.6138     0.0066
    2.6157     0.0067
    2.6175     0.0068
    2.6194     0.0070
    2.6213     0.0071
    2.6231     0.0072
    2.6250     0.0073
    2.6268     0.0074
    2.6287     0.0076
    2.6305     0.0077
    2.6324     0.0078
    2.6342     0.0080
    2.6361     0.0081
    2.6379     0.0083
    2.6398     0.0084
    2.6417     0.0086
    2.6435     0.0087
    2.6454     0.0089
    2.6472     0.0091
    2.6491     0.0092
    2.6509     0.0094
    2.6528     0.0096
    2.6546     0.0098
    2.6565     0.0100
   2.65834    0.01019
   2.66019    0.01039
   2.66205    0.01061
   2.66390    0.01083
   2.66575    0.01105
   2.66761    0.01128
   2.66946    0.01153
   2.67132    0.01177
   2.67317    0.01203
   2.67502    0.01230
   2.67688    0.01257
   2.67873    0.01285
   2.68059    0.01315
   2.68244    0.01345
   2.68429    0.01376
   2.68615    0.01409
   2.68800    0.01442
   2.68986    0.01477
   2.69171    0.01513
   2.69356    0.01551
   2.69542    0.01589
   2.69727    0.01630
   2.69913    0.01672
   2.70098    0.01715
   2.70284    0.01760
   2.70469    0.01807
   2.70654    0.01856
   2.70840    0.01907
   2.71025    0.01960
   2.71211    0.02015
   2.71396    0.02073
   2.71581    0.02133
   2.71767    0.02195
   2.71952    0.02261
   2.72138    0.02329
   2.72323    0.02401
   2.72508    0.02476
   2.72694    0.02554
   2.72879    0.02636
   2.73065    0.02722
   2.73250    0.02813
   2.73435    0.02907
   2.73621    0.03007
   2.73806    0.03112
   2.73992    0.03223
   2.74177    0.03339
   2.74362    0.03462
   2.74548    0.03591
   2.74733    0.03728
   2.74919    0.03873
   2.75104    0.04026
   2.75289    0.04188
   2.75475    0.04361
   2.75660    0.04544
   2.75846    0.04738
   2.76031    0.04945
   2.76217    0.05166
   2.76402    0.05401
   2.76587    0.05653
   2.76773    0.05922
   2.76958    0.06211
   2.77144    0.06520
   2.77329    0.06853
   2.77514    0.07212
   2.77700    0.07598
   2.77885    0.08015
   2.78071    0.08467
   2.78256    0.08957
   2.78441    0.09489
  2.786268   0.100677
  2.788122   0.106991
  2.789976   0.113892
  2.791830   0.121452
  2.793684   0.129751
  2.795538   0.138883
  2.797392   0.148956
  2.799247   0.160093
  2.801100   0.172438
  2.802955   0.186154
  2.804809   0.201432
  2.806663   0.218485
  2.808517   0.237567
  2.810371   0.258963
  2.812225   0.282984
  2.814079   0.309996
  2.815933   0.340390
  2.817787   0.374572
  2.819641   0.412953
  2.821496   0.455928
  2.823349   0.503768
  2.825203   0.556570
  2.827058   0.614134
  2.828912   0.675731
  2.830766   0.739966
  2.832620   0.804559
  2.834474   0.866256
  2.836328   0.920944
  2.838182   0.964075
  2.840036   0.991421
  2.841890   1.000000
  2.843744   0.988837
  2.845598   0.959239
  2.847452   0.914432
  2.849306   0.858751
  2.851161   0.796726
  2.853014   0.732366
  2.854869   0.668788
  2.856723   0.608138
  2.858577   0.551708
  2.860431   0.500129
  2.862285   0.453569
  2.864139   0.411898
  2.865993   0.374815
  2.867847   0.341933
  2.869701   0.312829
  2.871555   0.287080
  2.873409   0.264279
  2.875263   0.244039
  2.877117   0.226000
  2.878971   0.209830
  2.880826   0.195231
  2.882679   0.181947
  2.884534   0.169772
  2.886388   0.158548
  2.888242   0.148168
  2.890096   0.138558
  2.891950   0.129668
  2.893804   0.121457
  2.895658   0.113888
  2.897512   0.106921
  2.899366   0.100514
   2.90122    0.09463
   2.90307    0.08921
   2.90493    0.08423
   2.90678    0.07964
   2.90864    0.07541
   2.91049    0.07150
   2.91234    0.06788
   2.91420    0.06453
   2.91605    0.06142
   2.91791    0.05853
   2.91976    0.05583
   2.92161    0.05332
   2.92347    0.05098
   2.92532    0.04878
   2.92718    0.04672
   2.92903    0.04479
   2.93089    0.04298
   2.93274    0.04127
   2.93459    0.03967
   2.93645    0.03815
   2.93830    0.03673
   2.94016    0.03537
   2.94201    0.03410
   2.94386    0.03289
   2.94572    0.03174
   2.94757    0.03065
   2.94943    0.02962
   2.95128    0.02864
   2.95313    0.02770
   2.95499    0.02682
   2.95684    0.02597
   2.95870    0.02516
   2.96055    0.02439
   2.96240    0.02365
   2.96426    0.02295
   2.96611    0.02228
   2.96797    0.02164
   2.96982    0.02102
   2.97167    0.02043
   2.97353    0.01986
   2.97538    0.01932
   2.97724    0.01880
   2.97909    0.01830
   2.98095    0.01782
   2.98280    0.01736
   2.98465    0.01692
   2.98651    0.01649
   2.98836    0.01608
   2.99022    0.01568
   2.99207    0.01530
   2.99392    0.01493
   2.99578    0.01458
   2.99763    0.01423
   2.99949    0.01390
   3.00134    0.01359
   3.00319    0.01328
   3.00505    0.01298
   3.00690    0.01269
   3.00876    0.01241
   3.01061    0.01214
   3.01246    0.01188
   3.01432    0.01163
   3.01617    0.01139
   3.01803    0.01115
   3.01988    0.01092
   3.02173    0.01070
   3.02359    0.01048
   3.02544    0.01027
   3.02730    0.01007
    3.0292     0.0099
    3.0310     0.0097
    3.0329     0.0095
    3.0347     0.0093
    3.0366     0.0091
    3.0384     0.0090
    3.0403     0.0088
    3.0421     0.0086
    3.0440     0.0085
    3.0458     0.0083
    3.0477     0.0082
    3.0495     0.0080
    3.0514     0.0079
    3.0533     0.0078
    3.0551     0.0076
    3.0570     0.0075
    3.0588     0.0074
    3.0607     0.0072
    3.0625     0.0071
    3.0644     0.0070
    3.0662     0.0069
    3.0681     0.0068
    3.0699     0.0067
    3.0718     0.0066
    3.0736     0.0065
    3.0755     0.0064
    3.0774     0.0063
    3.0792     0.0062
    3.0811     0.0061
    3.0829     0.0060
    3.0848     0.0059
    3.0866     0.0058
    3.0885     0.0057
    3.0903     0.0056
    3.0922     0.0055
    3.0940     0.0055
    3.0959     0.0054
    3.0978     0.0053
    3.0996     0.0052
    3.1015     0.0052
    3.1033     0.0051
    3.1052     0.0050
    3.1070     0.0049
    3.1089     0.0049
    3.1107     0.0048
    3.1126     0.0047
    3.1144     0.0047
    3.1163     0.0046
    3.1181     0.0045
    3.1200     0.0045
    3.1219     0.0044
    3.1237     0.0044
    3.1256     0.0043
    3.1274     0.0043
    3.1293     0.0042
    3.1311     0.0042
    3.1330     0.0041
    3.1348     0.0040
    3.1367     0.0040
    3.1385     0.0039
    3.1404     0.0039
    3.1422     0.0038
    3.1441     0.0038
    3.1460     0.0038
    3.1478     0.0037
    3.1497     0.0037
    3.1515     0.0036
    3.1534     0.0036
    3.1552     0.0035
    3.1571     0.0035
    3.1589     0.0035
    3.1608     0.0034
    3.1626     0.0034
    3.1645     0.0033
    3.1664     0.0033
    3.1682     0.0033
    3.1701     0.0032
    3.1719     0.0032
  3.174     0.3155E-2
  3.176     0.3120E-2
  3.177     0.3085E-2
  3.179     0.3052E-2
  3.181     0.3018E-2
  3.183     0.2986E-2
  3.185     0.2954E-2
  3.187     0.2922E-2
  3.189     0.2891E-2
  3.190     0.2860E-2
  3.192     0.2830E-2
  3.194     0.2801E-2
  3.196     0.2771E-2
  3.198     0.2743E-2
  3.200     0.2714E-2
  3.202     0.2687E-2
  3.203     0.2659E-2
  3.205     0.2632E-2
  3.207     0.2605E-2
  3.209     0.2579E-2
  3.211     0.2553E-2
  3.213     0.2528E-2
  3.215     0.2503E-2
  3.216     0.2478E-2
  3.218     0.2454E-2
  3.220     0.2430E-2
  3.222     0.2406E-2
  3.224     0.2383E-2
  3.226     0.2360E-2
  3.228     0.2338E-2
  3.229     0.2315E-2
  3.231     0.2293E-2
  3.233     0.2272E-2
  3.235     0.2250E-2
  3.237     0.2229E-2
  3.239     0.2209E-2
  3.241     0.2188E-2
  3.242     0.2168E-2
  3.244     0.2148E-2
  3.246     0.2128E-2
  3.248     0.2109E-2
  3.250     0.2090E-2
  3.252     0.2071E-2
  3.253     0.2053E-2
  3.255     0.2034E-2
  3.257     0.2016E-2
  3.259     0.1998E-2
  3.261     0.1981E-2
  3.263     0.1963E-2
  3.265     0.1946E-2
  3.266     0.1929E-2
  3.268     0.1912E-2
  3.270     0.1896E-2
  3.272     0.1880E-2
  3.274     0.1864E-2
  3.276     0.1848E-2
  3.278     0.1832E-2
  3.279     0.1817E-2
  3.281     0.1801E-2
  3.283     0.1786E-2
  3.285     0.1771E-2
  3.287     0.1757E-2
  3.289     0.1742E-2
  3.291     0.1728E-2
  3.292     0.1714E-2
  3.294     0.1700E-2
  3.296     0.1686E-2
  3.298     0.1672E-2
  3.300     0.1659E-2
  3.302     0.1645E-2
  3.304     0.1632E-2
  3.305     0.1619E-2
  3.307     0.1606E-2
  3.309     0.1594E-2
  3.311     0.1581E-2
  3.313     0.1569E-2
  3.315     0.1556E-2
  3.317     0.1544E-2
  3.318     0.1532E-2
  3.320     0.1520E-2
  3.322     0.1509E-2
  3.324     0.1497E-2
  3.326     0.1486E-2
  3.328     0.1474E-2
  3.330     0.1463E-2
  3.331     0.1452E-2
  3.333     0.1441E-2
  3.335     0.1430E-2
  3.337     0.1420E-2
  3.339     0.1409E-2
  3.341     0.1399E-2
  3.342     0.1388E-2
  3.344     0.1378E-2
  3.346     0.1368E-2
  3.348     0.1358E-2
  3.350     0.1348E-2
  3.352     0.1339E-2
  3.354     0.1329E-2
  3.355     0.1319E-2
  3.357     0.1310E-2
  3.359     0.1300E-2
  3.361     0.1291E-2
  3.363     0.1282E-2
  3.365     0.1273E-2
  3.367     0.1264E-2
  3.368     0.1255E-2
  3.370     0.1246E-2
  3.372     0.1238E-2
  3.374     0.1229E-2
  3.376     0.1221E-2
  3.378     0.1212E-2
  3.380     0.1204E-2
  3.381     0.1196E-2
# 
# 06/19/2019 at 14:22 YPP @ br018.pvt.bridges.psc.edu [start]
# 06/19/2019 at 14:22                                 [end]
#  
# Timing   [Min/Max/Average]: 02s/02s/02s
#
# .-Input file : amp.in
# | excitons                     # [R] Excitons
# | amplitude                    # [R] Amplitude
# | BoseTemp=  0.02585     eV    # Bosonic Temperature
# | States= "1 - 20"             # Index of the BS state(s)
# | #DipWeight                   #  Weight the contribution to the exciton WFs with the dipoles
# | Degen_Step=0.1000E-4   eV    # Maximum energy separation of two degenerate states
