#  __      __   ______   __       __  _______    ______     
# |  \    /  \ /      \ |  \     /  \|       \  /      \    
#  \$$\  /  $$|  $$$$$$\| $$\   /  $$| $$$$$$$\|  $$$$$$\   
#   \$$\/  $$ | $$__| $$| $$$\ /  $$$| $$__/ $$| $$  | $$   
#    \$$  $$  | $$    $$| $$$$\  $$$$| $$    $$| $$  | $$   
#     \$$$$   | $$$$$$$$| $$\$$ $$ $$| $$$$$$$\| $$  | $$   
#     | $$    | $$  | $$| $$ \$$$| $$| $$__/ $$| $$__/ $$   
#     | $$    | $$  | $$| $$  \$ | $$| $$    $$ \$$    $$   
#      \$$     \$$   \$$ \$$      \$$ \$$$$$$$   \$$$$$$    
#                                                           
#              GPL Version 4.1.4 Revision 76                
#                        MPI Build                          
#                http://www.yambo-code.org                  
#
# BSK|Identifier              :7677
#    |Dimension               :3278
#    |Bands                   :534 - 614
#    |Exchange           [res]: yes
#    |Correlation        [res]: no
#    |Kernel`s coupling       : no
#    |Exchange           [cpl]: no
#    |Correlation        [cpl]: no
#    |W interaction is bare   : no
#    |ALDA kernel in R-space  : no
#    |RL vectors    [exchange]:55207
#    |E/h energy range    [ev]:-1.000000 - -1.000000
#    |Coupling range     [o/o]: 100.0000 -  100.0000
#
# Electron-Hole pairs that contributes to Excitonic State 8 more than 5%
#
#  E    [eV]  Amplitude
#  
  2.440     0.3998E-3
  2.441     0.4014E-3
  2.442     0.4031E-3
  2.443     0.4047E-3
  2.444     0.4063E-3
  2.445     0.4080E-3
  2.446     0.4096E-3
  2.447     0.4113E-3
  2.448     0.4129E-3
  2.449     0.4146E-3
  2.450     0.4163E-3
  2.451     0.4180E-3
  2.452     0.4197E-3
  2.453     0.4215E-3
  2.454     0.4232E-3
  2.455     0.4249E-3
  2.456     0.4267E-3
  2.457     0.4285E-3
  2.458     0.4302E-3
  2.459     0.4320E-3
  2.460     0.4338E-3
  2.461     0.4357E-3
  2.462     0.4375E-3
  2.463     0.4393E-3
  2.464     0.4412E-3
  2.465     0.4430E-3
  2.466     0.4449E-3
  2.467     0.4468E-3
  2.468     0.4487E-3
  2.469     0.4506E-3
  2.470     0.4525E-3
  2.471     0.4544E-3
  2.472     0.4564E-3
  2.473     0.4583E-3
  2.474     0.4603E-3
  2.475     0.4623E-3
  2.476     0.4643E-3
  2.477     0.4663E-3
  2.478     0.4683E-3
  2.479     0.4703E-3
  2.480     0.4724E-3
  2.481     0.4744E-3
  2.482     0.4765E-3
  2.483     0.4786E-3
  2.484     0.4807E-3
  2.485     0.4828E-3
  2.486     0.4849E-3
  2.487     0.4871E-3
  2.488     0.4892E-3
  2.489     0.4914E-3
  2.490     0.4936E-3
  2.491     0.4958E-3
  2.492     0.4980E-3
  2.493     0.5002E-3
  2.494     0.5025E-3
  2.495     0.5047E-3
  2.496     0.5070E-3
  2.497     0.5093E-3
  2.498     0.5116E-3
  2.499     0.5139E-3
  2.500     0.5163E-3
  2.501     0.5186E-3
  2.502     0.5210E-3
  2.503     0.5234E-3
  2.504     0.5258E-3
  2.505     0.5282E-3
  2.506     0.5306E-3
  2.507     0.5331E-3
  2.508     0.5355E-3
  2.509     0.5380E-3
  2.510     0.5405E-3
  2.511     0.5431E-3
  2.512     0.5456E-3
  2.513     0.5482E-3
  2.514     0.5507E-3
  2.515     0.5533E-3
  2.516     0.5559E-3
  2.517     0.5586E-3
  2.518     0.5612E-3
  2.519     0.5639E-3
  2.520     0.5666E-3
  2.521     0.5693E-3
  2.522     0.5720E-3
  2.523     0.5747E-3
  2.524     0.5775E-3
  2.525     0.5803E-3
  2.526     0.5831E-3
  2.527     0.5859E-3
  2.528     0.5888E-3
  2.529     0.5916E-3
  2.530     0.5945E-3
  2.531     0.5974E-3
  2.532     0.6004E-3
  2.533     0.6033E-3
  2.534     0.6063E-3
  2.535     0.6093E-3
  2.536     0.6123E-3
  2.537     0.6154E-3
  2.538     0.6184E-3
  2.539     0.6215E-3
  2.540     0.6246E-3
  2.541     0.6277E-3
  2.542     0.6309E-3
  2.543     0.6341E-3
  2.544     0.6373E-3
  2.545     0.6405E-3
  2.546     0.6438E-3
  2.547     0.6470E-3
  2.548     0.6503E-3
  2.549     0.6537E-3
  2.550     0.6570E-3
  2.551     0.6604E-3
  2.552     0.6638E-3
  2.553     0.6672E-3
  2.554     0.6707E-3
  2.555     0.6742E-3
  2.556     0.6777E-3
  2.557     0.6812E-3
  2.558     0.6848E-3
  2.559     0.6884E-3
  2.560     0.6920E-3
  2.561     0.6957E-3
  2.562     0.6994E-3
  2.563     0.7031E-3
  2.564     0.7068E-3
  2.565     0.7106E-3
  2.566     0.7144E-3
  2.567     0.7182E-3
  2.568     0.7221E-3
  2.569     0.7260E-3
  2.570     0.7299E-3
  2.571     0.7339E-3
  2.572     0.7379E-3
  2.573     0.7419E-3
  2.574     0.7460E-3
  2.575     0.7500E-3
  2.576     0.7542E-3
  2.577     0.7583E-3
  2.578     0.7625E-3
  2.579     0.7667E-3
  2.580     0.7710E-3
  2.581     0.7753E-3
  2.582     0.7796E-3
  2.583     0.7840E-3
  2.584     0.7884E-3
  2.585     0.7929E-3
  2.586     0.7973E-3
  2.587     0.8019E-3
  2.588     0.8064E-3
  2.589     0.8110E-3
  2.590     0.8157E-3
  2.591     0.8203E-3
  2.592     0.8251E-3
  2.593     0.8298E-3
  2.594     0.8346E-3
  2.595     0.8395E-3
  2.596     0.8443E-3
  2.597     0.8493E-3
  2.598     0.8542E-3
  2.599     0.8592E-3
  2.600     0.8643E-3
  2.601     0.8694E-3
  2.602     0.8746E-3
  2.603     0.8797E-3
  2.604     0.8850E-3
  2.605     0.8903E-3
  2.606     0.8956E-3
  2.607     0.9010E-3
  2.608     0.9064E-3
  2.609     0.9119E-3
  2.610     0.9174E-3
  2.611     0.9230E-3
  2.612     0.9286E-3
  2.613     0.9343E-3
  2.614     0.9401E-3
  2.615     0.9459E-3
  2.616     0.9517E-3
  2.617     0.9576E-3
  2.618     0.9635E-3
  2.619     0.9695E-3
  2.620     0.9756E-3
  2.621     0.9817E-3
  2.622     0.9879E-3
  2.623     0.9941E-3
  2.624     0.1000E-2
  2.625     0.1007E-2
  2.626     0.1013E-2
  2.627     0.1020E-2
  2.628     0.1026E-2
  2.629     0.1033E-2
  2.630     0.1040E-2
  2.631     0.1046E-2
  2.632     0.1053E-2
  2.633     0.1060E-2
  2.634     0.1067E-2
  2.635     0.1074E-2
  2.636     0.1081E-2
  2.637     0.1088E-2
  2.638     0.1095E-2
  2.639     0.1103E-2
  2.640     0.1110E-2
  2.641     0.1117E-2
  2.642     0.1125E-2
  2.643     0.1132E-2
  2.644     0.1140E-2
  2.645     0.1148E-2
  2.646     0.1156E-2
  2.647     0.1163E-2
  2.648     0.1171E-2
  2.649     0.1180E-2
  2.650     0.1188E-2
  2.651     0.1196E-2
  2.652     0.1204E-2
  2.653     0.1213E-2
  2.654     0.1221E-2
  2.655     0.1230E-2
  2.656     0.1238E-2
  2.657     0.1247E-2
  2.658     0.1256E-2
  2.659     0.1265E-2
  2.660     0.1274E-2
  2.661     0.1283E-2
  2.662     0.1292E-2
  2.663     0.1302E-2
  2.664     0.1311E-2
  2.665     0.1321E-2
  2.666     0.1330E-2
  2.667     0.1340E-2
  2.668     0.1350E-2
  2.669     0.1360E-2
  2.670     0.1370E-2
  2.671     0.1380E-2
  2.672     0.1390E-2
  2.673     0.1401E-2
  2.674     0.1411E-2
  2.675     0.1422E-2
  2.676     0.1433E-2
  2.677     0.1444E-2
  2.678     0.1455E-2
  2.679     0.1466E-2
  2.680     0.1477E-2
  2.681     0.1489E-2
  2.682     0.1500E-2
  2.683     0.1512E-2
  2.684     0.1524E-2
  2.685     0.1536E-2
  2.686     0.1548E-2
  2.687     0.1560E-2
  2.688     0.1572E-2
  2.689     0.1585E-2
  2.690     0.1597E-2
  2.691     0.1610E-2
  2.692     0.1623E-2
  2.693     0.1636E-2
  2.694     0.1650E-2
  2.695     0.1663E-2
  2.696     0.1677E-2
  2.697     0.1691E-2
  2.698     0.1705E-2
  2.699     0.1719E-2
  2.700     0.1733E-2
  2.701     0.1748E-2
  2.702     0.1762E-2
  2.703     0.1777E-2
  2.704     0.1792E-2
  2.705     0.1808E-2
  2.706     0.1823E-2
  2.707     0.1839E-2
  2.708     0.1854E-2
  2.709     0.1871E-2
  2.710     0.1887E-2
  2.711     0.1903E-2
  2.712     0.1920E-2
  2.713     0.1937E-2
  2.714     0.1954E-2
  2.715     0.1971E-2
  2.716     0.1989E-2
  2.717     0.2007E-2
  2.718     0.2025E-2
  2.719     0.2043E-2
  2.720     0.2062E-2
  2.721     0.2081E-2
  2.722     0.2100E-2
  2.723     0.2119E-2
  2.724     0.2139E-2
  2.725     0.2159E-2
  2.726     0.2179E-2
  2.727     0.2199E-2
  2.728     0.2220E-2
  2.729     0.2241E-2
  2.730     0.2262E-2
  2.731     0.2284E-2
  2.732     0.2306E-2
  2.733     0.2328E-2
  2.734     0.2351E-2
  2.735     0.2374E-2
  2.736     0.2397E-2
  2.737     0.2421E-2
  2.738     0.2445E-2
  2.739     0.2469E-2
  2.740     0.2494E-2
  2.741     0.2519E-2
  2.742     0.2544E-2
  2.743     0.2570E-2
  2.744     0.2596E-2
  2.745     0.2623E-2
  2.746     0.2650E-2
  2.747     0.2677E-2
  2.748     0.2705E-2
  2.749     0.2734E-2
    2.7502     0.0028
    2.7512     0.0028
    2.7522     0.0028
    2.7532     0.0029
    2.7542     0.0029
    2.7552     0.0029
    2.7562     0.0029
    2.7572     0.0030
    2.7582     0.0030
    2.7592     0.0030
    2.7602     0.0031
    2.7612     0.0031
    2.7622     0.0031
    2.7632     0.0032
    2.7642     0.0032
    2.7652     0.0033
    2.7662     0.0033
    2.7672     0.0033
    2.7682     0.0034
    2.7692     0.0034
    2.7702     0.0034
    2.7712     0.0035
    2.7722     0.0035
    2.7732     0.0036
    2.7742     0.0036
    2.7752     0.0037
    2.7762     0.0037
    2.7772     0.0037
    2.7782     0.0038
    2.7792     0.0038
    2.7802     0.0039
    2.7812     0.0039
    2.7822     0.0040
    2.7832     0.0040
    2.7842     0.0041
    2.7852     0.0041
    2.7862     0.0042
    2.7872     0.0043
    2.7882     0.0043
    2.7892     0.0044
    2.7902     0.0044
    2.7912     0.0045
    2.7922     0.0045
    2.7932     0.0046
    2.7942     0.0047
    2.7952     0.0047
    2.7962     0.0048
    2.7972     0.0049
    2.7982     0.0049
    2.7992     0.0050
    2.8002     0.0051
    2.8012     0.0051
    2.8022     0.0052
    2.8032     0.0053
    2.8042     0.0054
    2.8052     0.0055
    2.8062     0.0055
    2.8072     0.0056
    2.8082     0.0057
    2.8092     0.0058
    2.8102     0.0059
    2.8112     0.0060
    2.8122     0.0061
    2.8132     0.0062
    2.8142     0.0063
    2.8152     0.0064
    2.8162     0.0065
    2.8172     0.0066
    2.8182     0.0067
    2.8192     0.0068
    2.8202     0.0069
    2.8212     0.0070
    2.8222     0.0071
    2.8232     0.0073
    2.8242     0.0074
    2.8252     0.0075
    2.8262     0.0076
    2.8272     0.0078
    2.8282     0.0079
    2.8292     0.0081
    2.8302     0.0082
    2.8312     0.0083
    2.8322     0.0085
    2.8332     0.0087
    2.8342     0.0088
    2.8352     0.0090
    2.8362     0.0092
    2.8372     0.0093
    2.8382     0.0095
    2.8392     0.0097
    2.8402     0.0099
   2.84124    0.01010
   2.84224    0.01031
   2.84324    0.01052
   2.84424    0.01073
   2.84524    0.01096
   2.84624    0.01119
   2.84724    0.01143
   2.84824    0.01168
   2.84924    0.01193
   2.85024    0.01220
   2.85124    0.01247
   2.85224    0.01275
   2.85324    0.01304
   2.85424    0.01334
   2.85524    0.01365
   2.85624    0.01397
   2.85724    0.01431
   2.85824    0.01465
   2.85924    0.01501
   2.86024    0.01538
   2.86124    0.01577
   2.86224    0.01617
   2.86324    0.01659
   2.86424    0.01702
   2.86524    0.01747
   2.86624    0.01793
   2.86724    0.01842
   2.86824    0.01893
   2.86924    0.01945
   2.87024    0.02000
   2.87124    0.02057
   2.87224    0.02117
   2.87324    0.02179
   2.87424    0.02244
   2.87524    0.02312
   2.87624    0.02383
   2.87724    0.02458
   2.87824    0.02536
   2.87924    0.02617
   2.88024    0.02703
   2.88124    0.02793
   2.88224    0.02887
   2.88324    0.02986
   2.88424    0.03090
   2.88524    0.03200
   2.88624    0.03316
   2.88724    0.03438
   2.88824    0.03566
   2.88924    0.03702
   2.89024    0.03846
   2.89124    0.03998
   2.89224    0.04160
   2.89324    0.04331
   2.89424    0.04513
   2.89524    0.04706
   2.89624    0.04912
   2.89724    0.05131
   2.89824    0.05365
   2.89924    0.05615
   2.90024    0.05882
   2.90124    0.06169
   2.90224    0.06477
   2.90324    0.06807
   2.90424    0.07163
   2.90524    0.07547
   2.90624    0.07962
   2.90724    0.08410
   2.90824    0.08897
   2.90924    0.09425
  2.910240   0.100000
  2.911240   0.106270
  2.912240   0.113123
  2.913240   0.120627
  2.914240   0.128865
  2.915240   0.137932
  2.916240   0.147929
  2.917240   0.158984
  2.918240   0.171233
  2.919240   0.184842
  2.920240   0.200001
  2.921240   0.216919
  2.922240   0.235851
  2.923240   0.257069
  2.924240   0.280897
  2.925240   0.307693
  2.926240   0.337836
  2.927240   0.371750
  2.928240   0.409836
  2.929240   0.452494
  2.930240   0.500001
  2.931240   0.552483
  2.932240   0.609760
  2.933240   0.671139
  2.934240   0.735300
  2.935240   0.800001
  2.936240   0.862065
  2.937240   0.917434
  2.938240   0.961537
  2.939240   0.990101
  2.940240   1.000000
  2.941240   0.990101
  2.942240   0.961537
  2.943240   0.917434
  2.944240   0.862065
  2.945240   0.800001
  2.946240   0.735287
  2.947240   0.671139
  2.948240   0.609760
  2.949240   0.552483
  2.950240   0.500001
  2.951240   0.452484
  2.952240   0.409836
  2.953240   0.371750
  2.954240   0.337836
  2.955240   0.307693
  2.956240   0.280897
  2.957240   0.257069
  2.958240   0.235851
  2.959240   0.216919
  2.960240   0.200001
  2.961240   0.184842
  2.962240   0.171233
  2.963240   0.158981
  2.964240   0.147929
  2.965240   0.137932
  2.966240   0.128865
  2.967240   0.120627
  2.968240   0.113122
  2.969240   0.106270
  2.970240   0.100000
   2.97124    0.09425
   2.97224    0.08897
   2.97324    0.08410
   2.97424    0.07962
   2.97524    0.07547
   2.97624    0.07163
   2.97724    0.06807
   2.97824    0.06477
   2.97924    0.06169
   2.98024    0.05882
   2.98124    0.05615
   2.98224    0.05365
   2.98324    0.05131
   2.98424    0.04912
   2.98524    0.04706
   2.98624    0.04513
   2.98724    0.04331
   2.98824    0.04160
   2.98924    0.03998
   2.99024    0.03846
   2.99124    0.03702
   2.99224    0.03566
   2.99324    0.03438
   2.99424    0.03316
   2.99524    0.03200
   2.99624    0.03090
   2.99724    0.02986
   2.99824    0.02887
   2.99924    0.02793
   3.00024    0.02703
   3.00124    0.02617
   3.00224    0.02535
   3.00324    0.02458
   3.00424    0.02383
   3.00524    0.02312
   3.00624    0.02244
   3.00724    0.02179
   3.00824    0.02117
   3.00924    0.02057
   3.01024    0.02000
   3.01124    0.01945
   3.01224    0.01893
   3.01324    0.01842
   3.01424    0.01793
   3.01524    0.01747
   3.01624    0.01702
   3.01724    0.01659
   3.01824    0.01617
   3.01924    0.01577
   3.02024    0.01538
   3.02124    0.01501
   3.02224    0.01465
   3.02324    0.01431
   3.02424    0.01397
   3.02524    0.01365
   3.02624    0.01334
   3.02724    0.01304
   3.02824    0.01275
   3.02924    0.01247
   3.03024    0.01220
   3.03124    0.01193
   3.03224    0.01168
   3.03324    0.01143
   3.03424    0.01119
   3.03524    0.01096
   3.03624    0.01073
   3.03724    0.01052
   3.03824    0.01031
   3.03924    0.01010
    3.0402     0.0099
    3.0412     0.0097
    3.0422     0.0095
    3.0432     0.0093
    3.0442     0.0092
    3.0452     0.0090
    3.0462     0.0088
    3.0472     0.0087
    3.0482     0.0085
    3.0492     0.0083
    3.0502     0.0082
    3.0512     0.0081
    3.0522     0.0079
    3.0532     0.0078
    3.0542     0.0076
    3.0552     0.0075
    3.0562     0.0074
    3.0572     0.0073
    3.0582     0.0071
    3.0592     0.0070
    3.0602     0.0069
    3.0612     0.0068
    3.0622     0.0067
    3.0632     0.0066
    3.0642     0.0065
    3.0652     0.0064
    3.0662     0.0063
    3.0672     0.0062
    3.0682     0.0061
    3.0692     0.0060
    3.0702     0.0059
    3.0712     0.0058
    3.0722     0.0057
    3.0732     0.0056
    3.0742     0.0055
    3.0752     0.0055
    3.0762     0.0054
    3.0772     0.0053
    3.0782     0.0052
    3.0792     0.0051
    3.0802     0.0051
    3.0812     0.0050
    3.0822     0.0049
    3.0832     0.0049
    3.0842     0.0048
    3.0852     0.0047
    3.0862     0.0047
    3.0872     0.0046
    3.0882     0.0045
    3.0892     0.0045
    3.0902     0.0044
    3.0912     0.0044
    3.0922     0.0043
    3.0932     0.0043
    3.0942     0.0042
    3.0952     0.0041
    3.0962     0.0041
    3.0972     0.0040
    3.0982     0.0040
    3.0992     0.0039
    3.1002     0.0039
    3.1012     0.0038
    3.1022     0.0038
    3.1032     0.0037
    3.1042     0.0037
    3.1052     0.0037
    3.1062     0.0036
    3.1072     0.0036
    3.1082     0.0035
    3.1092     0.0035
    3.1102     0.0034
    3.1112     0.0034
    3.1122     0.0034
    3.1132     0.0033
    3.1142     0.0033
    3.1152     0.0033
    3.1162     0.0032
    3.1172     0.0032
    3.1182     0.0031
  3.119     0.3111E-2
  3.120     0.3077E-2
  3.121     0.3043E-2
  3.122     0.3010E-2
  3.123     0.2977E-2
  3.124     0.2945E-2
  3.125     0.2913E-2
  3.126     0.2882E-2
  3.127     0.2852E-2
  3.128     0.2821E-2
  3.129     0.2792E-2
  3.130     0.2762E-2
  3.131     0.2734E-2
  3.132     0.2705E-2
  3.133     0.2677E-2
  3.134     0.2650E-2
  3.135     0.2623E-2
  3.136     0.2596E-2
  3.137     0.2570E-2
  3.138     0.2544E-2
  3.139     0.2519E-2
  3.140     0.2494E-2
  3.141     0.2469E-2
  3.142     0.2445E-2
  3.143     0.2421E-2
  3.144     0.2397E-2
  3.145     0.2374E-2
  3.146     0.2351E-2
  3.147     0.2328E-2
  3.148     0.2306E-2
  3.149     0.2284E-2
  3.150     0.2262E-2
  3.151     0.2241E-2
  3.152     0.2220E-2
  3.153     0.2199E-2
  3.154     0.2179E-2
  3.155     0.2159E-2
  3.156     0.2139E-2
  3.157     0.2119E-2
  3.158     0.2100E-2
  3.159     0.2081E-2
  3.160     0.2062E-2
  3.161     0.2043E-2
  3.162     0.2025E-2
  3.163     0.2007E-2
  3.164     0.1989E-2
  3.165     0.1971E-2
  3.166     0.1954E-2
  3.167     0.1937E-2
  3.168     0.1920E-2
  3.169     0.1903E-2
  3.170     0.1887E-2
  3.171     0.1871E-2
  3.172     0.1854E-2
  3.173     0.1839E-2
  3.174     0.1823E-2
  3.175     0.1808E-2
  3.176     0.1792E-2
  3.177     0.1777E-2
  3.178     0.1762E-2
  3.179     0.1748E-2
  3.180     0.1733E-2
  3.181     0.1719E-2
  3.182     0.1705E-2
  3.183     0.1691E-2
  3.184     0.1677E-2
  3.185     0.1663E-2
  3.186     0.1650E-2
  3.187     0.1636E-2
  3.188     0.1623E-2
  3.189     0.1610E-2
  3.190     0.1597E-2
  3.191     0.1585E-2
  3.192     0.1572E-2
  3.193     0.1560E-2
  3.194     0.1548E-2
  3.195     0.1536E-2
  3.196     0.1524E-2
  3.197     0.1512E-2
  3.198     0.1500E-2
  3.199     0.1489E-2
  3.200     0.1477E-2
  3.201     0.1466E-2
  3.202     0.1455E-2
  3.203     0.1444E-2
  3.204     0.1433E-2
  3.205     0.1422E-2
  3.206     0.1411E-2
  3.207     0.1401E-2
  3.208     0.1390E-2
  3.209     0.1380E-2
  3.210     0.1370E-2
  3.211     0.1360E-2
  3.212     0.1350E-2
  3.213     0.1340E-2
  3.214     0.1330E-2
  3.215     0.1321E-2
  3.216     0.1311E-2
  3.217     0.1302E-2
  3.218     0.1292E-2
  3.219     0.1283E-2
  3.220     0.1274E-2
  3.221     0.1265E-2
  3.222     0.1256E-2
  3.223     0.1247E-2
  3.224     0.1238E-2
  3.225     0.1230E-2
  3.226     0.1221E-2
  3.227     0.1213E-2
  3.228     0.1204E-2
  3.229     0.1196E-2
  3.230     0.1188E-2
  3.231     0.1180E-2
  3.232     0.1171E-2
  3.233     0.1163E-2
  3.234     0.1156E-2
  3.235     0.1148E-2
  3.236     0.1140E-2
  3.237     0.1132E-2
  3.238     0.1125E-2
  3.239     0.1117E-2
  3.240     0.1110E-2
  3.241     0.1103E-2
  3.242     0.1095E-2
  3.243     0.1088E-2
  3.244     0.1081E-2
  3.245     0.1074E-2
  3.246     0.1067E-2
  3.247     0.1060E-2
  3.248     0.1053E-2
  3.249     0.1046E-2
  3.250     0.1040E-2
  3.251     0.1033E-2
  3.252     0.1026E-2
  3.253     0.1020E-2
  3.254     0.1013E-2
  3.255     0.1007E-2
  3.256     0.1000E-2
  3.257     0.9941E-3
  3.258     0.9879E-3
  3.259     0.9817E-3
  3.260     0.9756E-3
  3.261     0.9695E-3
  3.262     0.9635E-3
  3.263     0.9576E-3
  3.264     0.9517E-3
  3.265     0.9459E-3
  3.266     0.9401E-3
  3.267     0.9343E-3
  3.268     0.9286E-3
  3.269     0.9230E-3
  3.270     0.9174E-3
  3.271     0.9119E-3
  3.272     0.9064E-3
  3.273     0.9010E-3
  3.274     0.8956E-3
  3.275     0.8903E-3
  3.276     0.8850E-3
  3.277     0.8797E-3
  3.278     0.8746E-3
  3.279     0.8694E-3
  3.280     0.8643E-3
  3.281     0.8592E-3
  3.282     0.8542E-3
  3.283     0.8493E-3
  3.284     0.8443E-3
  3.285     0.8395E-3
  3.286     0.8346E-3
  3.287     0.8298E-3
  3.288     0.8251E-3
  3.289     0.8203E-3
  3.290     0.8157E-3
  3.291     0.8110E-3
  3.292     0.8064E-3
  3.293     0.8019E-3
  3.294     0.7973E-3
  3.295     0.7929E-3
  3.296     0.7884E-3
  3.297     0.7840E-3
  3.298     0.7796E-3
  3.299     0.7753E-3
  3.300     0.7710E-3
  3.301     0.7667E-3
  3.302     0.7625E-3
  3.303     0.7583E-3
  3.304     0.7542E-3
  3.305     0.7500E-3
  3.306     0.7460E-3
  3.307     0.7419E-3
  3.308     0.7379E-3
  3.309     0.7339E-3
  3.310     0.7299E-3
  3.311     0.7260E-3
  3.312     0.7221E-3
  3.313     0.7182E-3
  3.314     0.7144E-3
  3.315     0.7106E-3
  3.316     0.7068E-3
  3.317     0.7031E-3
  3.318     0.6994E-3
  3.319     0.6957E-3
  3.320     0.6920E-3
  3.321     0.6884E-3
  3.322     0.6848E-3
  3.323     0.6812E-3
  3.324     0.6777E-3
  3.325     0.6742E-3
  3.326     0.6707E-3
  3.327     0.6672E-3
  3.328     0.6638E-3
  3.329     0.6604E-3
  3.330     0.6570E-3
  3.331     0.6537E-3
  3.332     0.6503E-3
  3.333     0.6470E-3
  3.334     0.6438E-3
  3.335     0.6405E-3
  3.336     0.6373E-3
  3.337     0.6341E-3
  3.338     0.6309E-3
  3.339     0.6277E-3
  3.340     0.6246E-3
  3.341     0.6215E-3
  3.342     0.6184E-3
  3.343     0.6154E-3
  3.344     0.6123E-3
  3.345     0.6093E-3
  3.346     0.6063E-3
  3.347     0.6033E-3
  3.348     0.6004E-3
  3.349     0.5974E-3
  3.350     0.5945E-3
  3.351     0.5916E-3
  3.352     0.5888E-3
  3.353     0.5859E-3
  3.354     0.5831E-3
  3.355     0.5803E-3
  3.356     0.5775E-3
  3.357     0.5747E-3
  3.358     0.5720E-3
  3.359     0.5693E-3
  3.360     0.5666E-3
  3.361     0.5639E-3
  3.362     0.5612E-3
  3.363     0.5586E-3
  3.364     0.5559E-3
  3.365     0.5533E-3
  3.366     0.5507E-3
  3.367     0.5482E-3
  3.368     0.5456E-3
  3.369     0.5431E-3
  3.370     0.5405E-3
  3.371     0.5380E-3
  3.372     0.5355E-3
  3.373     0.5331E-3
  3.374     0.5306E-3
  3.375     0.5282E-3
  3.376     0.5258E-3
  3.377     0.5234E-3
  3.378     0.5210E-3
  3.379     0.5186E-3
  3.380     0.5163E-3
  3.381     0.5139E-3
  3.382     0.5116E-3
  3.383     0.5093E-3
  3.384     0.5070E-3
  3.385     0.5047E-3
  3.386     0.5025E-3
  3.387     0.5002E-3
  3.388     0.4980E-3
  3.389     0.4958E-3
  3.390     0.4936E-3
  3.391     0.4914E-3
  3.392     0.4892E-3
  3.393     0.4871E-3
  3.394     0.4849E-3
  3.395     0.4828E-3
  3.396     0.4807E-3
  3.397     0.4786E-3
  3.398     0.4765E-3
  3.399     0.4744E-3
  3.400     0.4724E-3
  3.401     0.4703E-3
  3.402     0.4683E-3
  3.403     0.4663E-3
  3.404     0.4643E-3
  3.405     0.4623E-3
  3.406     0.4603E-3
  3.407     0.4583E-3
  3.408     0.4564E-3
  3.409     0.4544E-3
  3.410     0.4525E-3
  3.411     0.4506E-3
  3.412     0.4487E-3
  3.413     0.4468E-3
  3.414     0.4449E-3
  3.415     0.4430E-3
  3.416     0.4412E-3
  3.417     0.4393E-3
  3.418     0.4375E-3
  3.419     0.4357E-3
  3.420     0.4338E-3
  3.421     0.4320E-3
  3.422     0.4302E-3
  3.423     0.4285E-3
  3.424     0.4267E-3
  3.425     0.4249E-3
  3.426     0.4232E-3
  3.427     0.4215E-3
  3.428     0.4197E-3
  3.429     0.4180E-3
  3.430     0.4163E-3
  3.431     0.4146E-3
  3.432     0.4129E-3
  3.433     0.4113E-3
  3.434     0.4096E-3
  3.435     0.4080E-3
  3.436     0.4063E-3
  3.437     0.4047E-3
  3.438     0.4031E-3
  3.439     0.4014E-3
# 
# 06/19/2019 at 14:22 YPP @ br018.pvt.bridges.psc.edu [start]
# 06/19/2019 at 14:22                                 [end]
#  
# Timing   [Min/Max/Average]: 02s/02s/02s
#
# .-Input file : amp.in
# | excitons                     # [R] Excitons
# | amplitude                    # [R] Amplitude
# | BoseTemp=  0.02585     eV    # Bosonic Temperature
# | States= "1 - 20"             # Index of the BS state(s)
# | #DipWeight                   #  Weight the contribution to the exciton WFs with the dipoles
# | Degen_Step=0.1000E-4   eV    # Maximum energy separation of two degenerate states
