#                                                           
# ooooo   oooo ..     ooo        ooo ooooooooo.    .oooo.   
#  `88.   .8" .88.    `88.       .88 `88"   `Y8b  dP"  `Yb  
#   `88. .8" .8"88.    888b     d"88  88     888 88      88 
#    `88.8" .8" `88.   8 Y88. .P  88  88oooo888" 88      88 
#     `88" .88ooo888.  8  `888"   88  88    `88b 88      88 
#      88 .8"     `88. 8    Y     88  88    .88P `8b    d8" 
#     o88o88o      888o8          88 o88bood8P"   `Ybod8P"  
#                                                           
#                                                           
#               GPL Version 4.1.4 Revision 76               
#                         MPI Build                         
#                 http://www.yambo-code.org                 
#
# BSK|Identifier              :1891
#    |Dimension               :11943
#    |Bands                   :121 - 172
#    |Exchange           [res]: yes
#    |Correlation        [res]: yes
#    |Kernel`s coupling       : no
#    |Exchange           [cpl]: no
#    |Correlation        [cpl]: no
#    |W interaction is bare   : no
#    |ALDA kernel in R-space  : no
#    |RL vectors    [exchange]:31669
#    |RL vectors [correlation]:387
#    |E/h energy range    [ev]:-1.000000 - -1.000000
#    |Coupling range     [o/o]: 100.0000 -  100.0000
#  W |Interaction is diagonal : no
#    |Matrix size             :2845
#    |Bands                   :1 - 570
#    |e/h energy range    [ev]:-1.000000 - -1.000000
#    |Poles              [o/o]: 100.0000
#    |RL vectors in the sum   :31669
#    |[r,Vnl] included        : yes
#    |Field direction         :-.8660E-5 0.5000E-5  0.000000
#    |Coulomb Cutoff          :box z
#    |xc-Kernel               :none
# RIM|RL components      [col]:0
#    |Random points      [col]:0
#
# Electron-Hole pairs that contributes to Excitonic State 5 more than 5%
#
#  E    [eV]  Amplitude
#  
    1.5162     0.0017
    1.5198     0.0017
    1.5234     0.0017
    1.5271     0.0017
    1.5307     0.0017
    1.5344     0.0017
    1.5380     0.0017
    1.5416     0.0017
    1.5453     0.0017
    1.5489     0.0017
    1.5526     0.0018
    1.5562     0.0018
    1.5599     0.0018
    1.5635     0.0018
    1.5671     0.0018
    1.5708     0.0018
    1.5744     0.0018
    1.5781     0.0018
    1.5817     0.0018
    1.5853     0.0018
    1.5890     0.0018
    1.5926     0.0018
    1.5963     0.0019
    1.5999     0.0019
    1.6035     0.0019
    1.6072     0.0019
    1.6108     0.0019
    1.6145     0.0019
    1.6181     0.0019
    1.6218     0.0019
    1.6254     0.0019
    1.6290     0.0019
    1.6327     0.0020
    1.6363     0.0020
    1.6400     0.0020
    1.6436     0.0020
    1.6472     0.0020
    1.6509     0.0020
    1.6545     0.0020
    1.6582     0.0020
    1.6618     0.0020
    1.6655     0.0021
    1.6691     0.0021
    1.6727     0.0021
    1.6764     0.0021
    1.6800     0.0021
    1.6837     0.0021
    1.6873     0.0021
    1.6909     0.0021
    1.6946     0.0022
    1.6982     0.0022
    1.7019     0.0022
    1.7055     0.0022
    1.7092     0.0022
    1.7128     0.0022
    1.7164     0.0022
    1.7201     0.0022
    1.7237     0.0023
    1.7274     0.0023
    1.7310     0.0023
    1.7346     0.0023
    1.7383     0.0023
    1.7419     0.0023
    1.7456     0.0023
    1.7492     0.0024
    1.7528     0.0024
    1.7565     0.0024
    1.7601     0.0024
    1.7638     0.0024
    1.7674     0.0024
    1.7711     0.0024
    1.7747     0.0025
    1.7783     0.0025
    1.7820     0.0025
    1.7856     0.0025
    1.7893     0.0025
    1.7929     0.0025
    1.7965     0.0026
    1.8002     0.0026
    1.8038     0.0026
    1.8075     0.0026
    1.8111     0.0026
    1.8148     0.0027
    1.8184     0.0027
    1.8220     0.0027
    1.8257     0.0027
    1.8293     0.0027
    1.8330     0.0028
    1.8366     0.0028
    1.8402     0.0028
    1.8439     0.0028
    1.8475     0.0029
    1.8512     0.0029
    1.8548     0.0029
    1.8584     0.0029
    1.8621     0.0030
    1.8657     0.0030
    1.8694     0.0030
    1.8730     0.0030
    1.8767     0.0031
    1.8803     0.0031
    1.8839     0.0031
    1.8876     0.0032
    1.8912     0.0032
    1.8949     0.0033
    1.8985     0.0033
    1.9021     0.0033
    1.9058     0.0034
    1.9094     0.0034
    1.9131     0.0035
    1.9167     0.0035
    1.9204     0.0036
    1.9240     0.0036
    1.9276     0.0037
    1.9313     0.0038
    1.9349     0.0039
    1.9386     0.0039
    1.9422     0.0040
    1.9458     0.0041
    1.9495     0.0042
    1.9531     0.0044
    1.9568     0.0045
    1.9604     0.0046
    1.9641     0.0048
    1.9677     0.0050
    1.9713     0.0052
    1.9750     0.0054
    1.9786     0.0056
    1.9823     0.0059
    1.9859     0.0062
    1.9895     0.0065
    1.9932     0.0068
    1.9968     0.0072
    2.0005     0.0075
    2.0041     0.0078
    2.0077     0.0081
    2.0114     0.0082
    2.0150     0.0083
    2.0187     0.0084
    2.0223     0.0083
    2.0260     0.0081
    2.0296     0.0079
    2.0332     0.0076
    2.0369     0.0073
    2.0405     0.0070
    2.0442     0.0068
    2.0478     0.0065
    2.0514     0.0063
    2.0551     0.0061
    2.0587     0.0059
    2.0624     0.0057
    2.0660     0.0056
    2.0697     0.0055
    2.0733     0.0054
    2.0769     0.0053
    2.0806     0.0052
    2.0842     0.0051
    2.0879     0.0051
    2.0915     0.0050
    2.0951     0.0050
    2.0988     0.0050
    2.1024     0.0049
    2.1061     0.0049
    2.1097     0.0049
    2.1133     0.0049
    2.1170     0.0049
    2.1206     0.0049
    2.1243     0.0049
    2.1279     0.0049
    2.1316     0.0049
    2.1352     0.0049
    2.1388     0.0049
    2.1425     0.0050
    2.1461     0.0050
    2.1498     0.0050
    2.1534     0.0050
    2.1570     0.0050
    2.1607     0.0051
    2.1643     0.0051
    2.1680     0.0051
    2.1716     0.0051
    2.1753     0.0052
    2.1789     0.0052
    2.1825     0.0052
    2.1862     0.0053
    2.1898     0.0053
    2.1935     0.0053
    2.1971     0.0054
    2.2007     0.0054
    2.2044     0.0054
    2.2080     0.0055
    2.2117     0.0055
    2.2153     0.0056
    2.2190     0.0056
    2.2226     0.0056
    2.2262     0.0057
    2.2299     0.0057
    2.2335     0.0058
    2.2372     0.0058
    2.2408     0.0059
    2.2444     0.0059
    2.2481     0.0060
    2.2517     0.0060
    2.2554     0.0061
    2.2590     0.0061
    2.2626     0.0062
    2.2663     0.0062
    2.2699     0.0063
    2.2736     0.0063
    2.2772     0.0064
    2.2809     0.0065
    2.2845     0.0065
    2.2881     0.0066
    2.2918     0.0066
    2.2954     0.0067
    2.2991     0.0068
    2.3027     0.0068
    2.3063     0.0069
    2.3100     0.0069
    2.3136     0.0070
    2.3173     0.0071
    2.3209     0.0072
    2.3246     0.0072
    2.3282     0.0073
    2.3318     0.0074
    2.3355     0.0074
    2.3391     0.0075
    2.3428     0.0076
    2.3464     0.0077
    2.3500     0.0077
    2.3537     0.0078
    2.3573     0.0079
    2.3610     0.0080
    2.3646     0.0081
    2.3683     0.0082
    2.3719     0.0082
    2.3755     0.0083
    2.3792     0.0084
    2.3828     0.0085
    2.3865     0.0086
    2.3901     0.0087
    2.3937     0.0088
    2.3974     0.0089
    2.4010     0.0090
    2.4047     0.0091
    2.4083     0.0092
    2.4119     0.0093
    2.4156     0.0094
    2.4192     0.0095
    2.4229     0.0096
    2.4265     0.0098
    2.4302     0.0099
    2.4338     0.0100
   2.43744    0.01011
   2.44108    0.01024
   2.44472    0.01036
   2.44836    0.01049
   2.45200    0.01062
   2.45564    0.01075
   2.45929    0.01089
   2.46293    0.01103
   2.46657    0.01117
   2.47021    0.01131
   2.47385    0.01146
   2.47749    0.01161
   2.48113    0.01176
   2.48478    0.01192
   2.48842    0.01208
   2.49206    0.01224
   2.49570    0.01241
   2.49934    0.01258
   2.50298    0.01275
   2.50662    0.01293
   2.51027    0.01311
   2.51391    0.01330
   2.51755    0.01349
   2.52119    0.01368
   2.52483    0.01388
   2.52847    0.01408
   2.53211    0.01429
   2.53576    0.01450
   2.53940    0.01472
   2.54304    0.01494
   2.54668    0.01517
   2.55032    0.01541
   2.55396    0.01564
   2.55761    0.01589
   2.56125    0.01614
   2.56489    0.01640
   2.56853    0.01666
   2.57217    0.01693
   2.57581    0.01721
   2.57945    0.01750
   2.58310    0.01779
   2.58674    0.01809
   2.59038    0.01840
   2.59402    0.01872
   2.59766    0.01904
   2.60130    0.01938
   2.60494    0.01972
   2.60858    0.02008
   2.61223    0.02044
   2.61587    0.02081
   2.61951    0.02120
   2.62315    0.02160
   2.62679    0.02201
   2.63043    0.02243
   2.63408    0.02286
   2.63772    0.02331
   2.64136    0.02377
   2.64500    0.02425
   2.64864    0.02474
   2.65228    0.02525
   2.65592    0.02577
   2.65956    0.02632
   2.66321    0.02688
   2.66685    0.02746
   2.67049    0.02806
   2.67413    0.02868
   2.67777    0.02933
   2.68141    0.02999
   2.68506    0.03069
   2.68870    0.03141
   2.69234    0.03215
   2.69598    0.03293
   2.69962    0.03373
   2.70326    0.03457
   2.70690    0.03544
   2.71055    0.03635
   2.71419    0.03730
   2.71783    0.03828
   2.72147    0.03931
   2.72511    0.04039
   2.72875    0.04152
   2.73239    0.04269
   2.73604    0.04393
   2.73968    0.04522
   2.74332    0.04657
   2.74696    0.04800
   2.75060    0.04949
   2.75424    0.05107
   2.75788    0.05273
   2.76153    0.05448
   2.76517    0.05633
   2.76881    0.05829
   2.77245    0.06036
   2.77609    0.06257
   2.77973    0.06490
   2.78337    0.06739
   2.78702    0.07005
   2.79066    0.07289
   2.79430    0.07593
   2.79794    0.07918
   2.80158    0.08269
   2.80522    0.08646
   2.80886    0.09053
   2.81251    0.09494
   2.81615    0.09972
  2.819788   0.104913
  2.823430   0.110566
  2.827071   0.116730
  2.830713   0.123458
  2.834354   0.130803
  2.837996   0.138816
  2.841637   0.147537
  2.845278   0.156989
  2.848920   0.167164
  2.852561   0.178006
  2.856203   0.189402
  2.859844   0.201170
  2.863485   0.213059
  2.867127   0.224789
  2.870769   0.236091
  2.874410   0.246793
  2.878051   0.256879
  2.881693   0.266524
  2.885334   0.276084
  2.888976   0.286031
  2.892617   0.296892
  2.896258   0.309180
  2.899900   0.323364
  2.903541   0.339853
  2.907183   0.358995
  2.910824   0.381093
  2.914466   0.406401
  2.918107   0.435128
  2.921748   0.467428
  2.925390   0.503380
  2.929031   0.542942
  2.932673   0.585914
  2.936314   0.631860
  2.939956   0.680045
  2.943597   0.729398
  2.947239   0.778520
  2.950880   0.825774
  2.954521   0.869436
  2.958163   0.907899
  2.961804   0.939853
  2.965446   0.964413
  2.969087   0.981188
  2.972728   0.990293
  2.976370   0.992356
  2.980011   0.988480
  2.983653   0.980123
  2.987294   0.968913
  2.990936   0.956399
  2.994577   0.943862
  2.998219   0.932237
  3.001860   0.922169
  3.005502   0.914128
  3.009143   0.908508
  3.012784   0.905648
  3.016426   0.905799
  3.020067   0.909084
  3.023709   0.915477
  3.027350   0.924809
  3.030992   0.936729
  3.034633   0.950622
  3.038274   0.965466
  3.041916   0.979767
  3.045557   0.991614
  3.049199   0.998954
  3.052840   1.000000
  3.056482   0.993641
  3.060123   0.979668
  3.063765   0.958741
  3.067406   0.932132
  3.071047   0.901414
  3.074689   0.868193
  3.078330   0.833937
  3.081972   0.799855
  3.085613   0.766829
  3.089255   0.735388
  3.092896   0.705757
  3.096537   0.677949
  3.100179   0.651870
  3.103820   0.627391
  3.107462   0.604345
  3.111103   0.582511
  3.114744   0.561598
  3.118386   0.541291
  3.122028   0.521349
  3.125669   0.501705
  3.129310   0.482518
  3.132952   0.464144
  3.136593   0.447049
  3.140235   0.431688
  3.143876   0.418413
  3.147517   0.407406
  3.151159   0.398654
  3.154800   0.391946
  3.158442   0.386898
  3.162083   0.383003
  3.165725   0.379703
  3.169366   0.376482
  3.173007   0.372938
  3.176649   0.368822
  3.180290   0.364011
  3.183932   0.358448
  3.187573   0.352083
  3.191215   0.344860
  3.194856   0.336752
  3.198498   0.327814
  3.202139   0.318229
  3.205781   0.308292
  3.209422   0.298355
  3.213063   0.288758
  3.216705   0.279778
  3.220346   0.271611
  3.223988   0.264380
  3.227629   0.258159
  3.231271   0.252992
  3.234912   0.248896
  3.238554   0.245845
  3.242195   0.243756
  3.245836   0.242470
  3.249478   0.241761
  3.253119   0.241366
  3.256761   0.241032
  3.260402   0.240582
  3.264044   0.239950
  3.267685   0.239190
  3.271326   0.238446
  3.274968   0.237896
  3.278609   0.237707
  3.282251   0.238002
  3.285892   0.238852
  3.289534   0.240262
  3.293175   0.242162
  3.296816   0.244372
  3.300458   0.246591
  3.304099   0.248392
  3.307741   0.249277
  3.311382   0.248766
  3.315023   0.246517
  3.318665   0.242414
  3.322306   0.236602
  3.325948   0.229441
  3.329589   0.221408
  3.333231   0.212982
  3.336872   0.204561
  3.340514   0.196418
  3.344155   0.188704
  3.347796   0.181481
  3.351438   0.174767
  3.355079   0.168575
  3.358721   0.162939
  3.362362   0.157920
  3.366004   0.153594
  3.369645   0.150040
  3.373287   0.147330
  3.376928   0.145523
  3.380569   0.144666
  3.384211   0.144801
  3.387852   0.145967
  3.391494   0.148203
  3.395135   0.151550
  3.398776   0.156051
  3.402418   0.161742
  3.406060   0.168645
  3.409701   0.176749
  3.413342   0.185995
  3.416984   0.196242
  3.420625   0.207251
  3.424267   0.218656
  3.427908   0.229983
  3.431549   0.240679
  3.435191   0.250198
  3.438833   0.258092
  3.442474   0.264098
  3.446115   0.268176
  3.449757   0.270480
  3.453398   0.271290
  3.457040   0.270930
  3.460681   0.269688
  3.464322   0.267755
  3.467964   0.265177
  3.471605   0.261843
  3.475246   0.257521
  3.478888   0.251942
  3.482530   0.244924
  3.486171   0.236466
  3.489813   0.226785
  3.493454   0.216281
  3.497095   0.205444
  3.500737   0.194765
  3.504378   0.184647
  3.508019   0.175384
  3.511661   0.167138
  3.515302   0.159962
  3.518944   0.153805
  3.522586   0.148537
  3.526227   0.143966
  3.529868   0.139859
  3.533510   0.135976
  3.537151   0.132103
  3.540792   0.128094
  3.544434   0.123888
  3.548075   0.119517
  3.551717   0.115083
  3.555358   0.110725
  3.559000   0.106591
  3.562641   0.102810
   3.56628    0.09948
   3.56992    0.09667
   3.57357    0.09441
   3.57721    0.09275
   3.58085    0.09168
   3.58449    0.09120
   3.58813    0.09131
   3.59177    0.09200
   3.59541    0.09324
   3.59906    0.09499
   3.60270    0.09719
   3.60634    0.09976
  3.609980   0.102602
  3.613621   0.105588
  3.617263   0.108607
  3.620904   0.111565
  3.624546   0.114396
  3.628187   0.117062
  3.631828   0.119536
  3.635470   0.121782
  3.639111   0.123753
  3.642753   0.125397
  3.646394   0.126684
  3.650036   0.127633
  3.653677   0.128321
  3.657319   0.128860
  3.660960   0.129373
  3.664601   0.129957
  3.668243   0.130668
  3.671884   0.131528
  3.675526   0.132544
  3.679167   0.133737
  3.682809   0.135150
  3.686450   0.136839
  3.690092   0.138843
  3.693733   0.141139
  3.697374   0.143611
  3.701016   0.146031
  3.704657   0.148079
  3.708298   0.149385
  3.711940   0.149611
  3.715582   0.148535
  3.719223   0.146103
  3.722865   0.142440
  3.726506   0.137798
  3.730147   0.132473
  3.733789   0.126743
  3.737430   0.120814
  3.741071   0.114817
  3.744713   0.108831
  3.748354   0.102903
   3.75200    0.09708
   3.75564    0.09143
   3.75928    0.08601
   3.76292    0.08089
   3.76656    0.07613
   3.77020    0.07177
   3.77384    0.06783
   3.77749    0.06433
   3.78113    0.06125
   3.78477    0.05859
   3.78841    0.05633
   3.79205    0.05444
   3.79569    0.05291
   3.79933    0.05173
   3.80298    0.05088
   3.80662    0.05036
   3.81026    0.05016
   3.81390    0.05027
   3.81754    0.05070
   3.82118    0.05143
   3.82482    0.05245
   3.82847    0.05371
   3.83211    0.05516
   3.83575    0.05672
   3.83939    0.05827
   3.84303    0.05964
   3.84667    0.06069
   3.85031    0.06125
   3.85396    0.06122
   3.85760    0.06056
   3.86124    0.05931
   3.86488    0.05759
   3.86852    0.05554
   3.87216    0.05334
   3.87580    0.05113
   3.87945    0.04902
   3.88309    0.04710
   3.88673    0.04542
   3.89037    0.04401
   3.89401    0.04288
   3.89765    0.04205
   3.90129    0.04150
   3.90494    0.04122
   3.90858    0.04122
   3.91222    0.04147
   3.91586    0.04195
   3.91950    0.04265
   3.92314    0.04352
   3.92678    0.04453
   3.93043    0.04565
   3.93407    0.04685
   3.93771    0.04811
   3.94135    0.04940
   3.94499    0.05070
   3.94863    0.05197
   3.95227    0.05315
   3.95592    0.05413
   3.95956    0.05482
   3.96320    0.05510
   3.96684    0.05492
   3.97048    0.05427
   3.97412    0.05320
   3.97776    0.05183
   3.98141    0.05029
   3.98505    0.04873
   3.98869    0.04725
   3.99233    0.04594
   3.99597    0.04487
   3.99961    0.04406
   4.00325    0.04353
   4.00690    0.04326
   4.01054    0.04323
   4.01418    0.04342
   4.01782    0.04380
   4.02146    0.04437
   4.02510    0.04510
   4.02875    0.04597
   4.03239    0.04695
   4.03603    0.04799
   4.03967    0.04900
   4.04331    0.04986
   4.04695    0.05042
   4.05059    0.05057
   4.05423    0.05019
   4.05788    0.04925
   4.06152    0.04778
   4.06516    0.04588
   4.06880    0.04368
   4.07244    0.04133
   4.07608    0.03895
   4.07972    0.03663
   4.08337    0.03445
   4.08701    0.03244
   4.09065    0.03063
   4.09429    0.02902
   4.09793    0.02761
   4.10157    0.02638
   4.10522    0.02533
   4.10886    0.02445
   4.11250    0.02372
   4.11614    0.02313
   4.11978    0.02267
   4.12342    0.02235
   4.12706    0.02216
   4.13071    0.02209
   4.13435    0.02214
   4.13799    0.02231
   4.14163    0.02260
   4.14527    0.02300
   4.14891    0.02352
   4.15255    0.02414
   4.15620    0.02484
   4.15984    0.02559
   4.16348    0.02638
   4.16712    0.02716
   4.17076    0.02789
   4.17440    0.02854
   4.17804    0.02908
   4.18169    0.02951
   4.18533    0.02983
   4.18897    0.03006
   4.19261    0.03022
   4.19625    0.03037
   4.19989    0.03056
   4.20353    0.03084
   4.20718    0.03125
   4.21082    0.03181
   4.21446    0.03253
   4.21810    0.03339
   4.22174    0.03435
   4.22538    0.03536
   4.22902    0.03634
   4.23267    0.03719
   4.23631    0.03787
   4.23995    0.03830
   4.24359    0.03850
   4.24723    0.03850
   4.25087    0.03837
   4.25451    0.03819
   4.25816    0.03803
   4.26180    0.03794
   4.26544    0.03793
   4.26908    0.03797
   4.27272    0.03799
   4.27636    0.03790
   4.28000    0.03761
   4.28365    0.03704
   4.28729    0.03613
   4.29093    0.03489
   4.29457    0.03336
   4.29821    0.03164
   4.30185    0.02979
   4.30549    0.02793
   4.30914    0.02610
   4.31278    0.02438
   4.31642    0.02277
   4.32006    0.02131
   4.32370    0.01999
   4.32734    0.01881
   4.33098    0.01776
   4.33463    0.01683
   4.33827    0.01602
   4.34191    0.01531
   4.34555    0.01469
   4.34919    0.01416
   4.35283    0.01371
   4.35647    0.01333
   4.36012    0.01302
   4.36376    0.01277
   4.36740    0.01259
   4.37104    0.01247
   4.37468    0.01241
   4.37832    0.01241
   4.38196    0.01248
   4.38561    0.01262
   4.38925    0.01282
   4.39289    0.01311
   4.39653    0.01347
   4.40017    0.01391
   4.40381    0.01443
   4.40745    0.01503
   4.41110    0.01570
   4.41474    0.01642
   4.41838    0.01716
   4.42202    0.01787
   4.42566    0.01851
   4.42930    0.01900
   4.43294    0.01930
   4.43659    0.01935
   4.44023    0.01913
   4.44387    0.01866
   4.44751    0.01798
   4.45115    0.01715
   4.45479    0.01622
   4.45843    0.01525
   4.46208    0.01429
   4.46572    0.01337
   4.46936    0.01251
   4.47300    0.01171
   4.47664    0.01099
   4.48028    0.01034
    4.4839     0.0097
    4.4876     0.0092
    4.4912     0.0088
    4.4948     0.0083
    4.4985     0.0079
    4.5021     0.0076
    4.5058     0.0073
    4.5094     0.0070
    4.5131     0.0068
    4.5167     0.0066
    4.5203     0.0063
    4.5240     0.0062
    4.5276     0.0060
    4.5313     0.0058
    4.5349     0.0057
    4.5385     0.0056
    4.5422     0.0055
    4.5458     0.0054
    4.5495     0.0053
    4.5531     0.0052
    4.5568     0.0051
    4.5604     0.0051
    4.5640     0.0050
    4.5677     0.0050
    4.5713     0.0049
    4.5750     0.0049
    4.5786     0.0049
    4.5822     0.0049
    4.5859     0.0049
    4.5895     0.0049
    4.5932     0.0049
    4.5968     0.0049
    4.6005     0.0050
    4.6041     0.0051
    4.6077     0.0052
    4.6114     0.0053
    4.6150     0.0054
    4.6187     0.0055
    4.6223     0.0057
    4.6259     0.0059
    4.6296     0.0061
    4.6332     0.0064
    4.6369     0.0066
    4.6405     0.0069
    4.6441     0.0071
    4.6478     0.0073
    4.6514     0.0075
    4.6551     0.0075
    4.6587     0.0075
    4.6624     0.0074
    4.6660     0.0072
    4.6696     0.0070
    4.6733     0.0067
    4.6769     0.0064
    4.6806     0.0061
    4.6842     0.0057
    4.6878     0.0054
    4.6915     0.0052
    4.6951     0.0049
  4.699     0.4683E-2
  4.702     0.4473E-2
  4.706     0.4284E-2
  4.710     0.4113E-2
  4.713     0.3960E-2
  4.717     0.3821E-2
  4.721     0.3696E-2
  4.724     0.3582E-2
  4.728     0.3478E-2
  4.732     0.3384E-2
  4.735     0.3297E-2
  4.739     0.3218E-2
  4.742     0.3145E-2
  4.746     0.3077E-2
  4.750     0.3015E-2
  4.753     0.2956E-2
  4.757     0.2902E-2
  4.761     0.2851E-2
  4.764     0.2803E-2
  4.768     0.2758E-2
  4.772     0.2715E-2
  4.775     0.2675E-2
  4.779     0.2637E-2
  4.783     0.2601E-2
  4.786     0.2567E-2
  4.790     0.2534E-2
  4.793     0.2502E-2
  4.797     0.2472E-2
  4.801     0.2444E-2
  4.804     0.2416E-2
  4.808     0.2389E-2
  4.812     0.2364E-2
  4.815     0.2339E-2
  4.819     0.2315E-2
  4.823     0.2292E-2
  4.826     0.2269E-2
  4.830     0.2248E-2
  4.834     0.2227E-2
  4.837     0.2206E-2
  4.841     0.2186E-2
  4.844     0.2167E-2
  4.848     0.2148E-2
  4.852     0.2130E-2
  4.855     0.2112E-2
  4.859     0.2095E-2
  4.863     0.2078E-2
  4.866     0.2061E-2
  4.870     0.2045E-2
  4.874     0.2029E-2
  4.877     0.2013E-2
  4.881     0.1998E-2
  4.884     0.1983E-2
  4.888     0.1968E-2
  4.892     0.1954E-2
  4.895     0.1940E-2
  4.899     0.1926E-2
  4.903     0.1912E-2
  4.906     0.1899E-2
  4.910     0.1886E-2
  4.914     0.1873E-2
  4.917     0.1860E-2
  4.921     0.1848E-2
  4.925     0.1836E-2
  4.928     0.1824E-2
  4.932     0.1812E-2
  4.935     0.1800E-2
  4.939     0.1788E-2
  4.943     0.1777E-2
  4.946     0.1766E-2
  4.950     0.1755E-2
  4.954     0.1744E-2
  4.957     0.1733E-2
  4.961     0.1723E-2
  4.965     0.1712E-2
  4.968     0.1702E-2
  4.972     0.1692E-2
  4.976     0.1682E-2
  4.979     0.1672E-2
  4.983     0.1662E-2
  4.986     0.1652E-2
  4.990     0.1643E-2
  4.994     0.1633E-2
  4.997     0.1624E-2
  5.001     0.1615E-2
  5.005     0.1606E-2
  5.008     0.1597E-2
  5.012     0.1588E-2
  5.016     0.1579E-2
  5.019     0.1571E-2
  5.023     0.1562E-2
  5.026     0.1553E-2
  5.030     0.1545E-2
  5.034     0.1537E-2
  5.037     0.1529E-2
  5.041     0.1520E-2
  5.045     0.1512E-2
  5.048     0.1504E-2
  5.052     0.1497E-2
  5.056     0.1489E-2
  5.059     0.1481E-2
  5.063     0.1473E-2
  5.067     0.1466E-2
  5.070     0.1458E-2
  5.074     0.1451E-2
  5.077     0.1444E-2
  5.081     0.1436E-2
  5.085     0.1429E-2
  5.088     0.1422E-2
  5.092     0.1415E-2
  5.096     0.1408E-2
  5.099     0.1401E-2
  5.103     0.1394E-2
  5.107     0.1387E-2
  5.110     0.1381E-2
  5.114     0.1374E-2
  5.118     0.1367E-2
  5.121     0.1361E-2
  5.125     0.1354E-2
  5.128     0.1348E-2
  5.132     0.1341E-2
  5.136     0.1335E-2
  5.139     0.1329E-2
  5.143     0.1322E-2
  5.147     0.1316E-2
  5.150     0.1310E-2
  5.154     0.1304E-2
# 
# 05/03/2019 at 10:41 YPP @ login1.stampede2.tacc.utexas.edu [start]
# 05/03/2019 at 10:41                                        [end]
#  
# Timing   [Min/Max/Average]: 04s/04s/04s
#
# .-Input file : amp.in
# | excitons                     # [R] Excitons
# | amplitude                    # [R] Amplitude
# | BoseTemp=  0.02585     eV    # Bosonic Temperature
# | States= "1 - 10"             # Index of the BS state(s)
# | #DipWeight                   #  Weight the contribution to the exciton WFs with the dipoles
# | Degen_Step=0.1000E-4   eV    # Maximum energy separation of two degenerate states
