#                                                           
# ooooo   oooo ..     ooo        ooo ooooooooo.    .oooo.   
#  `88.   .8" .88.    `88.       .88 `88"   `Y8b  dP"  `Yb  
#   `88. .8" .8"88.    888b     d"88  88     888 88      88 
#    `88.8" .8" `88.   8 Y88. .P  88  88oooo888" 88      88 
#     `88" .88ooo888.  8  `888"   88  88    `88b 88      88 
#      88 .8"     `88. 8    Y     88  88    .88P `8b    d8" 
#     o88o88o      888o8          88 o88bood8P"   `Ybod8P"  
#                                                           
#                                                           
#               GPL Version 4.1.4 Revision 76               
#                         MPI Build                         
#                 http://www.yambo-code.org                 
#
# BSK|Identifier              :1891
#    |Dimension               :11943
#    |Bands                   :121 - 172
#    |Exchange           [res]: yes
#    |Correlation        [res]: yes
#    |Kernel`s coupling       : no
#    |Exchange           [cpl]: no
#    |Correlation        [cpl]: no
#    |W interaction is bare   : no
#    |ALDA kernel in R-space  : no
#    |RL vectors    [exchange]:31669
#    |RL vectors [correlation]:387
#    |E/h energy range    [ev]:-1.000000 - -1.000000
#    |Coupling range     [o/o]: 100.0000 -  100.0000
#  W |Interaction is diagonal : no
#    |Matrix size             :2845
#    |Bands                   :1 - 570
#    |e/h energy range    [ev]:-1.000000 - -1.000000
#    |Poles              [o/o]: 100.0000
#    |RL vectors in the sum   :31669
#    |[r,Vnl] included        : yes
#    |Field direction         :-.8660E-5 0.5000E-5  0.000000
#    |Coulomb Cutoff          :box z
#    |xc-Kernel               :none
# RIM|RL components      [col]:0
#    |Random points      [col]:0
#
# Electron-Hole pairs that contributes to Excitonic State 10 more than 5%
#
#  E    [eV]  Amplitude
#  
    1.5162     0.0029
    1.5187     0.0029
    1.5212     0.0030
    1.5237     0.0030
    1.5262     0.0030
    1.5288     0.0031
    1.5313     0.0031
    1.5338     0.0031
    1.5363     0.0032
    1.5388     0.0032
    1.5413     0.0032
    1.5439     0.0033
    1.5464     0.0033
    1.5489     0.0033
    1.5514     0.0034
    1.5539     0.0034
    1.5565     0.0034
    1.5590     0.0035
    1.5615     0.0035
    1.5640     0.0035
    1.5665     0.0036
    1.5691     0.0036
    1.5716     0.0037
    1.5741     0.0037
    1.5766     0.0037
    1.5791     0.0038
    1.5817     0.0038
    1.5842     0.0039
    1.5867     0.0039
    1.5892     0.0040
    1.5917     0.0040
    1.5943     0.0040
    1.5968     0.0041
    1.5993     0.0041
    1.6018     0.0042
    1.6043     0.0042
    1.6069     0.0043
    1.6094     0.0043
    1.6119     0.0044
    1.6144     0.0044
    1.6169     0.0045
    1.6195     0.0045
    1.6220     0.0046
    1.6245     0.0047
    1.6270     0.0047
    1.6295     0.0048
    1.6320     0.0048
    1.6346     0.0049
    1.6371     0.0050
    1.6396     0.0050
    1.6421     0.0051
    1.6446     0.0052
    1.6472     0.0052
    1.6497     0.0053
    1.6522     0.0054
    1.6547     0.0054
    1.6572     0.0055
    1.6598     0.0056
    1.6623     0.0057
    1.6648     0.0057
    1.6673     0.0058
    1.6698     0.0059
    1.6724     0.0060
    1.6749     0.0061
    1.6774     0.0061
    1.6799     0.0062
    1.6824     0.0063
    1.6850     0.0064
    1.6875     0.0065
    1.6900     0.0066
    1.6925     0.0067
    1.6950     0.0068
    1.6976     0.0069
    1.7001     0.0070
    1.7026     0.0071
    1.7051     0.0072
    1.7076     0.0073
    1.7102     0.0074
    1.7127     0.0076
    1.7152     0.0077
    1.7177     0.0078
    1.7202     0.0079
    1.7228     0.0081
    1.7253     0.0082
    1.7278     0.0083
    1.7303     0.0085
    1.7328     0.0086
    1.7353     0.0088
    1.7379     0.0089
    1.7404     0.0091
    1.7429     0.0092
    1.7454     0.0094
    1.7479     0.0096
    1.7505     0.0097
    1.7530     0.0099
   1.75550    0.01009
   1.75802    0.01028
   1.76054    0.01047
   1.76306    0.01067
   1.76558    0.01087
   1.76810    0.01108
   1.77062    0.01130
   1.77314    0.01152
   1.77566    0.01175
   1.77818    0.01198
   1.78070    0.01223
   1.78322    0.01248
   1.78574    0.01273
   1.78826    0.01300
   1.79078    0.01327
   1.79330    0.01356
   1.79581    0.01385
   1.79833    0.01415
   1.80085    0.01446
   1.80337    0.01479
   1.80589    0.01512
   1.80841    0.01547
   1.81093    0.01582
   1.81345    0.01619
   1.81597    0.01657
   1.81849    0.01697
   1.82101    0.01738
   1.82353    0.01781
   1.82605    0.01825
   1.82857    0.01871
   1.83109    0.01918
   1.83361    0.01968
   1.83613    0.02019
   1.83865    0.02073
   1.84117    0.02128
   1.84368    0.02186
   1.84620    0.02246
   1.84872    0.02309
   1.85124    0.02375
   1.85376    0.02443
   1.85628    0.02514
   1.85880    0.02589
   1.86132    0.02666
   1.86384    0.02748
   1.86636    0.02833
   1.86888    0.02922
   1.87140    0.03015
   1.87392    0.03113
   1.87644    0.03216
   1.87896    0.03324
   1.88148    0.03438
   1.88400    0.03557
   1.88652    0.03683
   1.88903    0.03815
   1.89155    0.03955
   1.89407    0.04103
   1.89659    0.04259
   1.89911    0.04424
   1.90163    0.04598
   1.90415    0.04783
   1.90667    0.04980
   1.90919    0.05188
   1.91171    0.05411
   1.91423    0.05647
   1.91675    0.05899
   1.91927    0.06168
   1.92179    0.06456
   1.92431    0.06764
   1.92683    0.07095
   1.92935    0.07450
   1.93187    0.07832
   1.93439    0.08244
   1.93690    0.08688
   1.93942    0.09168
   1.94194    0.09689
  1.944463   0.102539
  1.946983   0.108684
  1.949502   0.115383
  1.952021   0.122699
  1.954541   0.130708
  1.957060   0.139497
  1.959580   0.149161
  1.962099   0.159816
  1.964619   0.171589
  1.967138   0.184629
  1.969658   0.199108
  1.972177   0.215220
  1.974697   0.233187
  1.977216   0.253261
  1.979735   0.275724
  1.982255   0.300885
  1.984774   0.329078
  1.987294   0.360646
  1.989813   0.395924
  1.992333   0.435196
  1.994852   0.478649
  1.997372   0.526284
  1.999891   0.577830
  2.002411   0.632608
  2.004930   0.689464
  2.007450   0.746722
  2.009969   0.802270
  2.012489   0.853805
  2.015008   0.899193
  2.017528   0.936830
  2.020047   0.965833
  2.022567   0.985962
  2.025086   0.997316
  2.027605   1.000000
  2.030125   0.993954
  2.032644   0.979023
  2.035164   0.955182
  2.037683   0.922765
  2.040203   0.882595
  2.042722   0.835960
  2.045242   0.784515
  2.047761   0.730115
  2.050281   0.674630
  2.052800   0.619762
  2.055319   0.566902
  2.057839   0.517057
  2.060358   0.470848
  2.062878   0.428564
  2.065397   0.390237
  2.067917   0.355727
  2.070436   0.324784
  2.072956   0.297108
  2.075475   0.272377
  2.077995   0.250280
  2.080514   0.230519
  2.083034   0.212823
  2.085553   0.196947
  2.088073   0.182675
  2.090592   0.169818
  2.093112   0.158207
  2.095631   0.147697
  2.098150   0.138162
  2.100670   0.129490
  2.103189   0.121586
  2.105709   0.114364
  2.108228   0.107751
  2.110748   0.101683
   2.11327    0.09610
   2.11579    0.09096
   2.11831    0.08622
   2.12083    0.08183
   2.12334    0.07776
   2.12586    0.07399
   2.12838    0.07048
   2.13090    0.06721
   2.13342    0.06417
   2.13594    0.06132
   2.13846    0.05866
   2.14098    0.05617
   2.14350    0.05383
   2.14602    0.05163
   2.14854    0.04957
   2.15106    0.04763
   2.15358    0.04580
   2.15610    0.04407
   2.15862    0.04244
   2.16114    0.04090
   2.16366    0.03944
   2.16618    0.03805
   2.16870    0.03674
   2.17121    0.03550
   2.17373    0.03432
   2.17625    0.03320
   2.17877    0.03213
   2.18129    0.03111
   2.18381    0.03014
   2.18633    0.02922
   2.18885    0.02834
   2.19137    0.02749
   2.19389    0.02669
   2.19641    0.02592
   2.19893    0.02518
   2.20145    0.02448
   2.20397    0.02381
   2.20649    0.02316
   2.20901    0.02254
   2.21153    0.02194
   2.21405    0.02137
   2.21657    0.02082
   2.21908    0.02029
   2.22160    0.01979
   2.22412    0.01930
   2.22664    0.01883
   2.22916    0.01838
   2.23168    0.01794
   2.23420    0.01752
   2.23672    0.01712
   2.23924    0.01673
   2.24176    0.01635
   2.24428    0.01599
   2.24680    0.01563
   2.24932    0.01529
   2.25184    0.01497
   2.25436    0.01465
   2.25688    0.01434
   2.25940    0.01405
   2.26192    0.01376
   2.26443    0.01348
   2.26695    0.01321
   2.26947    0.01295
   2.27199    0.01270
   2.27451    0.01245
   2.27703    0.01221
   2.27955    0.01198
   2.28207    0.01176
   2.28459    0.01154
   2.28711    0.01133
   2.28963    0.01113
   2.29215    0.01093
   2.29467    0.01074
   2.29719    0.01055
   2.29971    0.01037
   2.30223    0.01019
   2.30475    0.01002
    2.3073     0.0099
    2.3098     0.0097
    2.3123     0.0095
    2.3148     0.0094
    2.3173     0.0092
    2.3199     0.0091
    2.3224     0.0089
    2.3249     0.0088
    2.3274     0.0087
    2.3299     0.0085
    2.3325     0.0084
    2.3350     0.0083
    2.3375     0.0082
    2.3400     0.0080
    2.3425     0.0079
    2.3451     0.0078
    2.3476     0.0077
    2.3501     0.0076
    2.3526     0.0075
    2.3551     0.0074
    2.3577     0.0073
    2.3602     0.0072
    2.3627     0.0071
    2.3652     0.0070
    2.3677     0.0069
    2.3703     0.0068
    2.3728     0.0067
    2.3753     0.0067
    2.3778     0.0066
    2.3803     0.0065
    2.3828     0.0064
    2.3854     0.0063
    2.3879     0.0063
    2.3904     0.0062
    2.3929     0.0061
    2.3954     0.0060
    2.3980     0.0060
    2.4005     0.0059
    2.4030     0.0058
    2.4055     0.0058
    2.4080     0.0057
    2.4106     0.0057
    2.4131     0.0056
    2.4156     0.0055
    2.4181     0.0055
    2.4206     0.0054
    2.4232     0.0054
    2.4257     0.0053
    2.4282     0.0053
    2.4307     0.0052
    2.4332     0.0052
    2.4358     0.0051
    2.4383     0.0051
    2.4408     0.0050
    2.4433     0.0050
    2.4458     0.0049
    2.4484     0.0049
    2.4509     0.0049
    2.4534     0.0048
    2.4559     0.0048
    2.4584     0.0047
    2.4610     0.0047
    2.4635     0.0047
    2.4660     0.0046
    2.4685     0.0046
    2.4710     0.0045
    2.4736     0.0045
    2.4761     0.0045
    2.4786     0.0045
    2.4811     0.0044
    2.4836     0.0044
    2.4861     0.0044
    2.4887     0.0043
    2.4912     0.0043
    2.4937     0.0043
    2.4962     0.0042
    2.4987     0.0042
    2.5013     0.0042
    2.5038     0.0042
    2.5063     0.0041
    2.5088     0.0041
    2.5113     0.0041
    2.5139     0.0041
    2.5164     0.0041
    2.5189     0.0040
    2.5214     0.0040
    2.5239     0.0040
    2.5265     0.0040
    2.5290     0.0040
    2.5315     0.0039
    2.5340     0.0039
    2.5365     0.0039
    2.5391     0.0039
    2.5416     0.0039
    2.5441     0.0039
    2.5466     0.0039
    2.5491     0.0038
    2.5517     0.0038
    2.5542     0.0038
    2.5567     0.0038
    2.5592     0.0038
    2.5617     0.0038
    2.5643     0.0038
    2.5668     0.0038
    2.5693     0.0038
    2.5718     0.0038
    2.5743     0.0037
    2.5768     0.0037
    2.5794     0.0037
    2.5819     0.0037
    2.5844     0.0037
    2.5869     0.0037
    2.5894     0.0037
    2.5920     0.0037
    2.5945     0.0037
    2.5970     0.0037
    2.5995     0.0037
    2.6020     0.0037
    2.6046     0.0037
    2.6071     0.0037
    2.6096     0.0037
    2.6121     0.0037
    2.6146     0.0037
    2.6172     0.0037
    2.6197     0.0038
    2.6222     0.0038
    2.6247     0.0038
    2.6272     0.0038
    2.6298     0.0038
    2.6323     0.0038
    2.6348     0.0038
    2.6373     0.0038
    2.6398     0.0038
    2.6424     0.0038
    2.6449     0.0039
    2.6474     0.0039
    2.6499     0.0039
    2.6524     0.0039
    2.6550     0.0039
    2.6575     0.0040
    2.6600     0.0040
    2.6625     0.0040
    2.6650     0.0040
    2.6675     0.0041
    2.6701     0.0041
    2.6726     0.0041
    2.6751     0.0041
    2.6776     0.0042
    2.6801     0.0042
    2.6827     0.0042
    2.6852     0.0043
    2.6877     0.0043
    2.6902     0.0043
    2.6927     0.0044
    2.6953     0.0044
    2.6978     0.0045
    2.7003     0.0045
    2.7028     0.0046
    2.7053     0.0046
    2.7079     0.0047
    2.7104     0.0047
    2.7129     0.0048
    2.7154     0.0048
    2.7179     0.0049
    2.7205     0.0050
    2.7230     0.0050
    2.7255     0.0051
    2.7280     0.0052
    2.7305     0.0053
    2.7331     0.0054
    2.7356     0.0054
    2.7381     0.0055
    2.7406     0.0056
    2.7431     0.0057
    2.7457     0.0058
    2.7482     0.0059
    2.7507     0.0061
    2.7532     0.0062
    2.7557     0.0063
    2.7582     0.0064
    2.7608     0.0066
    2.7633     0.0067
    2.7658     0.0069
    2.7683     0.0071
    2.7708     0.0072
    2.7734     0.0074
    2.7759     0.0076
    2.7784     0.0078
    2.7809     0.0081
    2.7834     0.0083
    2.7860     0.0085
    2.7885     0.0088
    2.7910     0.0091
    2.7935     0.0094
    2.7960     0.0097
   2.79856    0.01008
   2.80108    0.01045
   2.80360    0.01086
   2.80612    0.01130
   2.80864    0.01177
   2.81116    0.01229
   2.81368    0.01284
   2.81620    0.01345
   2.81872    0.01411
   2.82124    0.01484
   2.82376    0.01563
   2.82628    0.01650
   2.82879    0.01746
   2.83131    0.01853
   2.83383    0.01970
   2.83635    0.02101
   2.83887    0.02246
   2.84139    0.02407
   2.84391    0.02587
   2.84643    0.02786
   2.84895    0.03006
   2.85147    0.03249
   2.85399    0.03514
   2.85651    0.03800
   2.85903    0.04103
   2.86155    0.04415
   2.86407    0.04725
   2.86659    0.05020
   2.86911    0.05281
   2.87163    0.05492
   2.87415    0.05639
   2.87666    0.05716
   2.87918    0.05723
   2.88170    0.05674
   2.88422    0.05583
   2.88674    0.05471
   2.88926    0.05355
   2.89178    0.05252
   2.89430    0.05174
   2.89682    0.05128
   2.89934    0.05120
   2.90186    0.05154
   2.90438    0.05232
   2.90690    0.05356
   2.90942    0.05525
   2.91194    0.05741
   2.91446    0.06002
   2.91698    0.06307
   2.91950    0.06653
   2.92201    0.07038
   2.92453    0.07456
   2.92705    0.07906
   2.92957    0.08385
   2.93209    0.08891
   2.93461    0.09422
   2.93713    0.09972
  2.939651   0.105358
  2.942170   0.111027
  2.944690   0.116606
  2.947209   0.121965
  2.949729   0.126964
  2.952248   0.131464
  2.954768   0.135322
  2.957287   0.138396
  2.959807   0.140547
  2.962326   0.141650
  2.964846   0.141593
  2.967365   0.140307
  2.969885   0.137784
  2.972404   0.134105
  2.974923   0.129439
  2.977443   0.124026
  2.979962   0.118148
  2.982482   0.112090
  2.985001   0.106110
  2.987521   0.100419
   2.99004    0.09517
   2.99256    0.09044
   2.99508    0.08626
   2.99760    0.08263
   3.00012    0.07950
   3.00264    0.07684
   3.00516    0.07459
   3.00768    0.07274
   3.01020    0.07126
   3.01272    0.07010
   3.01523    0.06922
   3.01775    0.06855
   3.02027    0.06802
   3.02279    0.06755
   3.02531    0.06710
   3.02783    0.06664
   3.03035    0.06621
   3.03287    0.06586
   3.03539    0.06567
   3.03791    0.06571
   3.04043    0.06601
   3.04295    0.06660
   3.04547    0.06744
   3.04799    0.06849
   3.05051    0.06967
   3.05303    0.07092
   3.05555    0.07217
   3.05807    0.07336
   3.06059    0.07445
   3.06310    0.07535
   3.06562    0.07600
   3.06814    0.07629
   3.07066    0.07614
   3.07318    0.07551
   3.07570    0.07442
   3.07822    0.07297
   3.08074    0.07128
   3.08326    0.06947
   3.08578    0.06765
   3.08830    0.06590
   3.09082    0.06421
   3.09334    0.06258
   3.09586    0.06099
   3.09838    0.05940
   3.10090    0.05784
   3.10342    0.05631
   3.10594    0.05486
   3.10845    0.05349
   3.11097    0.05221
   3.11349    0.05096
   3.11601    0.04968
   3.11853    0.04829
   3.12105    0.04670
   3.12357    0.04487
   3.12609    0.04279
   3.12861    0.04051
   3.13113    0.03810
   3.13365    0.03564
   3.13617    0.03320
   3.13869    0.03086
   3.14121    0.02864
   3.14373    0.02659
   3.14625    0.02471
   3.14877    0.02299
   3.15129    0.02144
   3.15381    0.02003
   3.15632    0.01876
   3.15884    0.01761
   3.16136    0.01658
   3.16388    0.01564
   3.16640    0.01479
   3.16892    0.01402
   3.17144    0.01332
   3.17396    0.01268
   3.17648    0.01210
   3.17900    0.01156
   3.18152    0.01107
   3.18404    0.01062
   3.18656    0.01020
    3.1891     0.0098
    3.1916     0.0095
    3.1941     0.0091
    3.1966     0.0088
    3.1992     0.0085
    3.2017     0.0083
    3.2042     0.0080
    3.2067     0.0078
    3.2092     0.0076
    3.2118     0.0074
    3.2143     0.0072
    3.2168     0.0070
    3.2193     0.0069
    3.2218     0.0067
    3.2244     0.0066
    3.2269     0.0065
    3.2294     0.0064
    3.2319     0.0063
    3.2344     0.0062
    3.2369     0.0061
    3.2395     0.0060
    3.2420     0.0060
    3.2445     0.0059
    3.2470     0.0059
    3.2495     0.0059
    3.2521     0.0058
    3.2546     0.0058
    3.2571     0.0058
    3.2596     0.0059
    3.2621     0.0059
    3.2647     0.0059
    3.2672     0.0060
    3.2697     0.0061
    3.2722     0.0062
    3.2747     0.0063
    3.2773     0.0065
    3.2798     0.0066
    3.2823     0.0069
    3.2848     0.0071
    3.2873     0.0074
    3.2899     0.0077
    3.2924     0.0081
    3.2949     0.0085
    3.2974     0.0090
    3.2999     0.0095
   3.30245    0.01011
   3.30497    0.01071
   3.30749    0.01133
   3.31001    0.01195
   3.31253    0.01252
   3.31505    0.01301
   3.31757    0.01340
   3.32009    0.01368
   3.32261    0.01383
   3.32513    0.01388
   3.32765    0.01386
   3.33017    0.01380
   3.33269    0.01373
   3.33521    0.01367
   3.33773    0.01363
   3.34025    0.01360
   3.34276    0.01355
   3.34528    0.01346
   3.34780    0.01329
   3.35032    0.01302
   3.35284    0.01263
   3.35536    0.01213
   3.35788    0.01155
   3.36040    0.01090
   3.36292    0.01023
    3.3654     0.0096
    3.3680     0.0089
    3.3705     0.0083
    3.3730     0.0077
    3.3755     0.0072
    3.3780     0.0067
    3.3806     0.0063
    3.3831     0.0059
    3.3856     0.0056
    3.3881     0.0053
    3.3906     0.0050
    3.3932     0.0047
    3.3957     0.0045
    3.3982     0.0043
    3.4007     0.0041
    3.4032     0.0040
    3.4058     0.0038
    3.4083     0.0037
    3.4108     0.0036
    3.4133     0.0034
  3.416     0.3346E-2
  3.418     0.3254E-2
  3.421     0.3170E-2
  3.423     0.3093E-2
  3.426     0.3023E-2
  3.428     0.2960E-2
  3.431     0.2903E-2
  3.433     0.2851E-2
  3.436     0.2804E-2
  3.439     0.2762E-2
  3.441     0.2725E-2
  3.444     0.2693E-2
  3.446     0.2665E-2
  3.449     0.2642E-2
  3.451     0.2623E-2
  3.454     0.2609E-2
  3.456     0.2599E-2
  3.459     0.2594E-2
  3.461     0.2593E-2
  3.464     0.2598E-2
  3.466     0.2608E-2
  3.469     0.2624E-2
  3.471     0.2646E-2
  3.474     0.2675E-2
  3.476     0.2711E-2
  3.479     0.2756E-2
  3.481     0.2809E-2
  3.484     0.2872E-2
  3.486     0.2947E-2
  3.489     0.3034E-2
  3.491     0.3136E-2
  3.494     0.3253E-2
  3.496     0.3389E-2
    3.4990     0.0035
    3.5015     0.0037
    3.5040     0.0039
    3.5065     0.0042
    3.5090     0.0044
    3.5116     0.0047
    3.5141     0.0050
    3.5166     0.0054
    3.5191     0.0058
    3.5216     0.0062
    3.5242     0.0065
    3.5267     0.0069
    3.5292     0.0072
    3.5317     0.0074
    3.5342     0.0075
    3.5368     0.0075
    3.5393     0.0074
    3.5418     0.0072
    3.5443     0.0068
    3.5468     0.0065
    3.5494     0.0060
    3.5519     0.0056
    3.5544     0.0052
    3.5569     0.0048
    3.5594     0.0045
    3.5620     0.0041
    3.5645     0.0039
    3.5670     0.0036
  3.570     0.3348E-2
  3.572     0.3136E-2
  3.575     0.2946E-2
  3.577     0.2777E-2
  3.580     0.2626E-2
  3.582     0.2490E-2
  3.585     0.2367E-2
  3.587     0.2257E-2
  3.590     0.2157E-2
  3.592     0.2067E-2
  3.595     0.1985E-2
  3.597     0.1910E-2
  3.600     0.1842E-2
  3.602     0.1779E-2
  3.605     0.1721E-2
  3.607     0.1668E-2
  3.610     0.1618E-2
  3.612     0.1573E-2
  3.615     0.1530E-2
  3.617     0.1491E-2
  3.620     0.1454E-2
  3.622     0.1419E-2
  3.625     0.1387E-2
  3.627     0.1357E-2
  3.630     0.1328E-2
  3.633     0.1301E-2
  3.635     0.1275E-2
  3.638     0.1251E-2
  3.640     0.1228E-2
  3.643     0.1207E-2
  3.645     0.1186E-2
  3.648     0.1166E-2
  3.650     0.1147E-2
  3.653     0.1129E-2
  3.655     0.1112E-2
  3.658     0.1096E-2
  3.660     0.1080E-2
  3.663     0.1065E-2
  3.665     0.1050E-2
  3.668     0.1036E-2
  3.670     0.1023E-2
  3.673     0.1010E-2
  3.675     0.9970E-3
  3.678     0.9848E-3
  3.680     0.9731E-3
  3.683     0.9617E-3
  3.685     0.9507E-3
  3.688     0.9401E-3
  3.690     0.9297E-3
  3.693     0.9197E-3
  3.695     0.9100E-3
  3.698     0.9005E-3
  3.701     0.8913E-3
  3.703     0.8823E-3
  3.706     0.8736E-3
  3.708     0.8651E-3
  3.711     0.8568E-3
  3.713     0.8487E-3
  3.716     0.8408E-3
  3.718     0.8331E-3
  3.721     0.8256E-3
  3.723     0.8182E-3
  3.726     0.8111E-3
  3.728     0.8040E-3
  3.731     0.7972E-3
  3.733     0.7904E-3
  3.736     0.7838E-3
  3.738     0.7774E-3
  3.741     0.7711E-3
  3.743     0.7649E-3
  3.746     0.7588E-3
  3.748     0.7528E-3
  3.751     0.7470E-3
  3.753     0.7412E-3
  3.756     0.7356E-3
  3.758     0.7300E-3
  3.761     0.7246E-3
  3.764     0.7192E-3
  3.766     0.7140E-3
  3.769     0.7088E-3
  3.771     0.7037E-3
  3.774     0.6987E-3
  3.776     0.6938E-3
  3.779     0.6890E-3
  3.781     0.6842E-3
  3.784     0.6795E-3
  3.786     0.6749E-3
  3.789     0.6704E-3
  3.791     0.6659E-3
  3.794     0.6615E-3
  3.796     0.6571E-3
  3.799     0.6528E-3
  3.801     0.6486E-3
  3.804     0.6444E-3
  3.806     0.6403E-3
  3.809     0.6363E-3
  3.811     0.6323E-3
  3.814     0.6283E-3
  3.816     0.6244E-3
  3.819     0.6206E-3
  3.821     0.6168E-3
  3.824     0.6131E-3
  3.827     0.6094E-3
  3.829     0.6057E-3
  3.832     0.6021E-3
  3.834     0.5986E-3
  3.837     0.5951E-3
  3.839     0.5916E-3
  3.842     0.5882E-3
  3.844     0.5848E-3
  3.847     0.5814E-3
  3.849     0.5781E-3
  3.852     0.5749E-3
  3.854     0.5716E-3
  3.857     0.5684E-3
  3.859     0.5653E-3
  3.862     0.5621E-3
  3.864     0.5591E-3
  3.867     0.5560E-3
  3.869     0.5530E-3
  3.872     0.5500E-3
  3.874     0.5470E-3
  3.877     0.5441E-3
  3.879     0.5412E-3
  3.882     0.5384E-3
  3.884     0.5355E-3
  3.887     0.5327E-3
  3.889     0.5299E-3
  3.892     0.5272E-3
  3.895     0.5245E-3
  3.897     0.5218E-3
  3.900     0.5191E-3
  3.902     0.5165E-3
  3.905     0.5139E-3
  3.907     0.5113E-3
  3.910     0.5087E-3
  3.912     0.5062E-3
  3.915     0.5037E-3
  3.917     0.5012E-3
  3.920     0.4987E-3
  3.922     0.4963E-3
  3.925     0.4938E-3
  3.927     0.4914E-3
  3.930     0.4891E-3
  3.932     0.4867E-3
  3.935     0.4844E-3
  3.937     0.4821E-3
  3.940     0.4798E-3
  3.942     0.4775E-3
  3.945     0.4752E-3
  3.947     0.4730E-3
  3.950     0.4708E-3
  3.952     0.4686E-3
  3.955     0.4664E-3
  3.958     0.4643E-3
  3.960     0.4622E-3
  3.963     0.4600E-3
  3.965     0.4579E-3
  3.968     0.4559E-3
  3.970     0.4538E-3
  3.973     0.4517E-3
  3.975     0.4497E-3
  3.978     0.4477E-3
  3.980     0.4457E-3
  3.983     0.4437E-3
  3.985     0.4418E-3
  3.988     0.4398E-3
  3.990     0.4379E-3
  3.993     0.4360E-3
  3.995     0.4341E-3
  3.998     0.4322E-3
  4.000     0.4303E-3
  4.003     0.4284E-3
  4.005     0.4266E-3
  4.008     0.4248E-3
  4.010     0.4230E-3
  4.013     0.4212E-3
  4.015     0.4194E-3
  4.018     0.4176E-3
  4.021     0.4158E-3
  4.023     0.4141E-3
  4.026     0.4124E-3
  4.028     0.4106E-3
  4.031     0.4089E-3
  4.033     0.4072E-3
# 
# 05/03/2019 at 10:41 YPP @ login1.stampede2.tacc.utexas.edu [start]
# 05/03/2019 at 10:41                                        [end]
#  
# Timing   [Min/Max/Average]: 04s/04s/04s
#
# .-Input file : amp.in
# | excitons                     # [R] Excitons
# | amplitude                    # [R] Amplitude
# | BoseTemp=  0.02585     eV    # Bosonic Temperature
# | States= "1 - 10"             # Index of the BS state(s)
# | #DipWeight                   #  Weight the contribution to the exciton WFs with the dipoles
# | Degen_Step=0.1000E-4   eV    # Maximum energy separation of two degenerate states
