#                                                           
# ooooo   oooo ..     ooo        ooo ooooooooo.    .oooo.   
#  `88.   .8" .88.    `88.       .88 `88"   `Y8b  dP"  `Yb  
#   `88. .8" .8"88.    888b     d"88  88     888 88      88 
#    `88.8" .8" `88.   8 Y88. .P  88  88oooo888" 88      88 
#     `88" .88ooo888.  8  `888"   88  88    `88b 88      88 
#      88 .8"     `88. 8    Y     88  88    .88P `8b    d8" 
#     o88o88o      888o8          88 o88bood8P"   `Ybod8P"  
#                                                           
#                                                           
#               GPL Version 4.1.4 Revision 76               
#                         MPI Build                         
#                 http://www.yambo-code.org                 
#
# BSK|Identifier              :1891
#    |Dimension               :11943
#    |Bands                   :121 - 172
#    |Exchange           [res]: yes
#    |Correlation        [res]: yes
#    |Kernel`s coupling       : no
#    |Exchange           [cpl]: no
#    |Correlation        [cpl]: no
#    |W interaction is bare   : no
#    |ALDA kernel in R-space  : no
#    |RL vectors    [exchange]:31669
#    |RL vectors [correlation]:387
#    |E/h energy range    [ev]:-1.000000 - -1.000000
#    |Coupling range     [o/o]: 100.0000 -  100.0000
#  W |Interaction is diagonal : no
#    |Matrix size             :2845
#    |Bands                   :1 - 570
#    |e/h energy range    [ev]:-1.000000 - -1.000000
#    |Poles              [o/o]: 100.0000
#    |RL vectors in the sum   :31669
#    |[r,Vnl] included        : yes
#    |Field direction         :-.8660E-5 0.5000E-5  0.000000
#    |Coulomb Cutoff          :box z
#    |xc-Kernel               :none
# RIM|RL components      [col]:0
#    |Random points      [col]:0
#
# Electron-Hole pairs that contributes to Excitonic State 1 more than 5%
#
#  E    [eV]  Amplitude
#  
    1.4315     0.0050
    1.4350     0.0051
    1.4385     0.0052
    1.4420     0.0052
    1.4454     0.0053
    1.4489     0.0054
    1.4524     0.0055
    1.4559     0.0055
    1.4594     0.0056
    1.4629     0.0057
    1.4664     0.0058
    1.4699     0.0059
    1.4734     0.0059
    1.4769     0.0060
    1.4804     0.0061
    1.4839     0.0062
    1.4874     0.0063
    1.4909     0.0064
    1.4944     0.0065
    1.4979     0.0066
    1.5014     0.0067
    1.5048     0.0068
    1.5083     0.0069
    1.5118     0.0070
    1.5153     0.0071
    1.5188     0.0073
    1.5223     0.0074
    1.5258     0.0075
    1.5293     0.0076
    1.5328     0.0078
    1.5363     0.0079
    1.5398     0.0080
    1.5433     0.0082
    1.5468     0.0083
    1.5503     0.0085
    1.5538     0.0086
    1.5573     0.0088
    1.5608     0.0089
    1.5643     0.0091
    1.5677     0.0092
    1.5712     0.0094
    1.5747     0.0096
    1.5782     0.0098
    1.5817     0.0100
   1.58522    0.01015
   1.58871    0.01035
   1.59220    0.01055
   1.59570    0.01076
   1.59919    0.01098
   1.60269    0.01120
   1.60618    0.01143
   1.60968    0.01166
   1.61317    0.01191
   1.61666    0.01216
   1.62016    0.01242
   1.62365    0.01269
   1.62715    0.01296
   1.63064    0.01325
   1.63413    0.01354
   1.63763    0.01385
   1.64112    0.01416
   1.64462    0.01449
   1.64811    0.01483
   1.65161    0.01518
   1.65510    0.01554
   1.65859    0.01591
   1.66209    0.01630
   1.66558    0.01670
   1.66908    0.01712
   1.67257    0.01756
   1.67607    0.01801
   1.67956    0.01847
   1.68305    0.01896
   1.68655    0.01947
   1.69004    0.01999
   1.69354    0.02054
   1.69703    0.02111
   1.70052    0.02171
   1.70402    0.02233
   1.70751    0.02297
   1.71101    0.02365
   1.71450    0.02435
   1.71800    0.02509
   1.72149    0.02586
   1.72498    0.02667
   1.72848    0.02751
   1.73197    0.02840
   1.73547    0.02932
   1.73896    0.03030
   1.74246    0.03132
   1.74595    0.03240
   1.74944    0.03353
   1.75294    0.03472
   1.75643    0.03597
   1.75993    0.03730
   1.76342    0.03869
   1.76691    0.04017
   1.77041    0.04173
   1.77390    0.04339
   1.77740    0.04514
   1.78089    0.04700
   1.78439    0.04898
   1.78788    0.05108
   1.79137    0.05332
   1.79487    0.05570
   1.79836    0.05825
   1.80186    0.06097
   1.80535    0.06389
   1.80885    0.06702
   1.81234    0.07037
   1.81583    0.07398
   1.81933    0.07787
   1.82282    0.08207
   1.82632    0.08660
   1.82981    0.09151
   1.83330    0.09684
  1.836799   0.102634
  1.840293   0.108945
  1.843787   0.115834
  1.847281   0.123371
  1.850776   0.131636
  1.854270   0.140718
  1.857764   0.150724
  1.861258   0.161773
  1.864752   0.174003
  1.868247   0.187573
  1.871741   0.202665
  1.875235   0.219488
  1.878729   0.238279
  1.882223   0.259307
  1.885718   0.282873
  1.889212   0.309307
  1.892706   0.338963
  1.896200   0.372204
  1.899695   0.409381
  1.903189   0.450789
  1.906683   0.496608
  1.910177   0.546818
  1.913671   0.601092
  1.917166   0.658673
  1.920660   0.718266
  1.924154   0.777989
  1.927648   0.835422
  1.931142   0.887825
  1.934637   0.932460
  1.938131   0.966985
  1.941625   0.989771
  1.945119   1.000000
  1.948614   0.997568
  1.952108   0.982881
  1.955602   0.956717
  1.959096   0.920216
  1.962590   0.874952
  1.966085   0.822946
  1.969579   0.766529
  1.973073   0.708094
  1.976567   0.649818
  1.980062   0.593452
  1.983556   0.540242
  1.987050   0.490932
  1.990544   0.445869
  1.994038   0.405093
  1.997532   0.368447
  2.001027   0.335652
  2.004521   0.306377
  2.008015   0.280270
  2.011509   0.256985
  2.015003   0.236199
  2.018498   0.217619
  2.021992   0.200982
  2.025486   0.186052
  2.028980   0.172625
  2.032475   0.160521
  2.035969   0.149585
  2.039463   0.139680
  2.042957   0.130686
  2.046451   0.122501
  2.049946   0.115035
  2.053440   0.108210
  2.056934   0.101958
   2.06043    0.09622
   2.06392    0.09094
   2.06742    0.08607
   2.07091    0.08157
   2.07440    0.07741
   2.07790    0.07355
   2.08139    0.06997
   2.08489    0.06664
   2.08838    0.06354
   2.09188    0.06065
   2.09537    0.05795
   2.09886    0.05542
   2.10236    0.05305
   2.10585    0.05083
   2.10935    0.04874
   2.11284    0.04678
   2.11634    0.04493
   2.11983    0.04319
   2.12332    0.04155
   2.12682    0.04000
   2.13031    0.03853
   2.13381    0.03714
   2.13730    0.03583
   2.14079    0.03458
   2.14429    0.03340
   2.14778    0.03227
   2.15128    0.03121
   2.15477    0.03019
   2.15827    0.02922
   2.16176    0.02830
   2.16525    0.02742
   2.16875    0.02658
   2.17224    0.02578
   2.17574    0.02501
   2.17923    0.02428
   2.18273    0.02358
   2.18622    0.02291
   2.18971    0.02226
   2.19321    0.02165
   2.19670    0.02106
   2.20020    0.02049
   2.20369    0.01994
   2.20719    0.01942
   2.21068    0.01892
   2.21417    0.01843
   2.21767    0.01797
   2.22116    0.01752
   2.22466    0.01709
   2.22815    0.01667
   2.23164    0.01627
   2.23514    0.01588
   2.23863    0.01551
   2.24213    0.01515
   2.24562    0.01480
   2.24912    0.01447
   2.25261    0.01414
   2.25610    0.01383
   2.25960    0.01353
   2.26309    0.01323
   2.26659    0.01295
   2.27008    0.01267
   2.27357    0.01241
   2.27707    0.01215
   2.28056    0.01190
   2.28406    0.01166
   2.28755    0.01142
   2.29105    0.01120
   2.29454    0.01097
   2.29803    0.01076
   2.30153    0.01055
   2.30502    0.01035
   2.30852    0.01015
    2.3120     0.0100
    2.3155     0.0098
    2.3190     0.0096
    2.3225     0.0094
    2.3260     0.0092
    2.3295     0.0091
    2.3330     0.0089
    2.3365     0.0088
    2.3400     0.0086
    2.3435     0.0085
    2.3470     0.0083
    2.3504     0.0082
    2.3539     0.0080
    2.3574     0.0079
    2.3609     0.0078
    2.3644     0.0076
    2.3679     0.0075
    2.3714     0.0074
    2.3749     0.0073
    2.3784     0.0072
    2.3819     0.0071
    2.3854     0.0069
    2.3889     0.0068
    2.3924     0.0067
    2.3959     0.0066
    2.3994     0.0065
    2.4029     0.0064
    2.4064     0.0063
    2.4098     0.0062
    2.4133     0.0061
    2.4168     0.0061
    2.4203     0.0060
    2.4238     0.0059
    2.4273     0.0058
    2.4308     0.0057
    2.4343     0.0056
    2.4378     0.0056
    2.4413     0.0055
    2.4448     0.0054
    2.4483     0.0053
    2.4518     0.0053
    2.4553     0.0052
    2.4588     0.0051
    2.4623     0.0051
    2.4658     0.0050
    2.4693     0.0049
    2.4727     0.0049
    2.4762     0.0048
    2.4797     0.0047
    2.4832     0.0047
    2.4867     0.0046
    2.4902     0.0046
    2.4937     0.0045
    2.4972     0.0044
    2.5007     0.0044
    2.5042     0.0043
    2.5077     0.0043
    2.5112     0.0042
    2.5147     0.0042
    2.5182     0.0041
    2.5217     0.0041
    2.5252     0.0040
    2.5287     0.0040
    2.5321     0.0039
    2.5356     0.0039
    2.5391     0.0039
    2.5426     0.0038
    2.5461     0.0038
    2.5496     0.0037
    2.5531     0.0037
    2.5566     0.0036
    2.5601     0.0036
    2.5636     0.0036
    2.5671     0.0035
    2.5706     0.0035
    2.5741     0.0035
    2.5776     0.0034
    2.5811     0.0034
    2.5846     0.0033
    2.5881     0.0033
    2.5915     0.0033
    2.5950     0.0032
    2.5985     0.0032
    2.6020     0.0032
    2.6055     0.0031
    2.6090     0.0031
    2.6125     0.0031
    2.6160     0.0031
    2.6195     0.0030
    2.6230     0.0030
    2.6265     0.0030
    2.6300     0.0029
    2.6335     0.0029
    2.6370     0.0029
    2.6405     0.0029
    2.6440     0.0028
    2.6475     0.0028
    2.6509     0.0028
    2.6544     0.0028
    2.6579     0.0027
    2.6614     0.0027
    2.6649     0.0027
  2.668     0.2658E-2
  2.672     0.2635E-2
  2.675     0.2612E-2
  2.679     0.2589E-2
  2.682     0.2567E-2
  2.686     0.2545E-2
  2.689     0.2524E-2
  2.693     0.2503E-2
  2.696     0.2482E-2
  2.700     0.2461E-2
  2.703     0.2441E-2
  2.707     0.2422E-2
  2.710     0.2402E-2
  2.714     0.2383E-2
  2.717     0.2364E-2
  2.721     0.2346E-2
  2.724     0.2327E-2
  2.728     0.2309E-2
  2.731     0.2292E-2
  2.735     0.2274E-2
  2.738     0.2257E-2
  2.742     0.2241E-2
  2.745     0.2224E-2
  2.749     0.2208E-2
  2.752     0.2192E-2
  2.756     0.2176E-2
  2.759     0.2161E-2
  2.763     0.2146E-2
  2.766     0.2131E-2
  2.770     0.2116E-2
  2.773     0.2102E-2
  2.777     0.2088E-2
  2.780     0.2074E-2
  2.784     0.2061E-2
  2.787     0.2047E-2
  2.791     0.2034E-2
  2.794     0.2021E-2
  2.798     0.2009E-2
  2.801     0.1996E-2
  2.805     0.1984E-2
  2.808     0.1973E-2
  2.812     0.1961E-2
  2.815     0.1950E-2
  2.819     0.1939E-2
  2.822     0.1928E-2
  2.826     0.1917E-2
  2.829     0.1907E-2
  2.833     0.1897E-2
  2.836     0.1887E-2
  2.840     0.1877E-2
  2.843     0.1868E-2
  2.847     0.1858E-2
  2.850     0.1850E-2
  2.854     0.1841E-2
  2.857     0.1833E-2
  2.861     0.1824E-2
  2.864     0.1816E-2
  2.868     0.1809E-2
  2.871     0.1801E-2
  2.875     0.1794E-2
  2.878     0.1787E-2
  2.882     0.1781E-2
  2.885     0.1775E-2
  2.889     0.1768E-2
  2.892     0.1763E-2
  2.896     0.1757E-2
  2.899     0.1752E-2
  2.903     0.1747E-2
  2.906     0.1742E-2
  2.910     0.1738E-2
  2.913     0.1734E-2
  2.917     0.1730E-2
  2.920     0.1727E-2
  2.923     0.1724E-2
  2.927     0.1721E-2
  2.930     0.1719E-2
  2.934     0.1717E-2
  2.937     0.1715E-2
  2.941     0.1714E-2
  2.944     0.1713E-2
  2.948     0.1713E-2
  2.951     0.1713E-2
  2.955     0.1713E-2
  2.958     0.1714E-2
  2.962     0.1715E-2
  2.965     0.1717E-2
  2.969     0.1719E-2
  2.972     0.1722E-2
  2.976     0.1726E-2
  2.979     0.1729E-2
  2.983     0.1734E-2
  2.986     0.1739E-2
  2.990     0.1745E-2
  2.993     0.1751E-2
  2.997     0.1758E-2
  3.000     0.1766E-2
  3.004     0.1775E-2
  3.007     0.1784E-2
  3.011     0.1794E-2
  3.014     0.1806E-2
  3.018     0.1818E-2
  3.021     0.1831E-2
  3.025     0.1845E-2
  3.028     0.1860E-2
  3.032     0.1877E-2
  3.035     0.1895E-2
  3.039     0.1914E-2
  3.042     0.1934E-2
  3.046     0.1956E-2
  3.049     0.1980E-2
  3.053     0.2005E-2
  3.056     0.2033E-2
  3.060     0.2062E-2
  3.063     0.2093E-2
  3.067     0.2127E-2
  3.070     0.2163E-2
  3.074     0.2202E-2
  3.077     0.2244E-2
  3.081     0.2289E-2
  3.084     0.2337E-2
  3.088     0.2389E-2
  3.091     0.2445E-2
  3.095     0.2505E-2
  3.098     0.2570E-2
  3.102     0.2640E-2
  3.105     0.2716E-2
  3.109     0.2797E-2
  3.112     0.2886E-2
  3.116     0.2982E-2
  3.119     0.3087E-2
    3.1227     0.0032
    3.1262     0.0033
    3.1297     0.0035
    3.1332     0.0036
    3.1366     0.0038
    3.1401     0.0039
    3.1436     0.0041
    3.1471     0.0044
    3.1506     0.0046
    3.1541     0.0048
    3.1576     0.0051
    3.1611     0.0055
    3.1646     0.0058
    3.1681     0.0062
    3.1716     0.0067
    3.1751     0.0072
    3.1786     0.0077
    3.1821     0.0084
    3.1856     0.0091
    3.1891     0.0099
   3.19255    0.01076
   3.19605    0.01177
   3.19954    0.01290
   3.20303    0.01415
   3.20653    0.01553
   3.21002    0.01703
   3.21352    0.01863
   3.21701    0.02029
   3.22051    0.02194
   3.22400    0.02352
   3.22749    0.02491
   3.23099    0.02600
   3.23448    0.02670
   3.23798    0.02693
   3.24147    0.02668
   3.24497    0.02596
   3.24846    0.02484
   3.25195    0.02343
   3.25545    0.02184
   3.25894    0.02017
   3.26244    0.01851
   3.26593    0.01690
   3.26942    0.01540
   3.27292    0.01401
   3.27641    0.01275
   3.27991    0.01162
   3.28340    0.01061
    3.2869     0.0097
    3.2904     0.0089
    3.2939     0.0082
    3.2974     0.0076
    3.3009     0.0070
    3.3044     0.0065
    3.3079     0.0060
    3.3114     0.0056
    3.3148     0.0053
    3.3183     0.0049
    3.3218     0.0046
    3.3253     0.0044
    3.3288     0.0041
    3.3323     0.0039
    3.3358     0.0037
    3.3393     0.0035
  3.343     0.3340E-2
  3.346     0.3185E-2
  3.350     0.3042E-2
  3.353     0.2910E-2
  3.357     0.2788E-2
  3.360     0.2675E-2
  3.364     0.2570E-2
  3.367     0.2473E-2
  3.371     0.2382E-2
  3.374     0.2297E-2
  3.378     0.2219E-2
  3.381     0.2145E-2
  3.385     0.2076E-2
  3.388     0.2011E-2
  3.392     0.1950E-2
  3.395     0.1892E-2
  3.399     0.1838E-2
  3.402     0.1787E-2
  3.406     0.1739E-2
  3.409     0.1694E-2
  3.413     0.1651E-2
  3.416     0.1610E-2
  3.420     0.1571E-2
  3.423     0.1534E-2
  3.427     0.1499E-2
  3.430     0.1466E-2
  3.434     0.1434E-2
  3.437     0.1404E-2
  3.441     0.1375E-2
  3.444     0.1348E-2
  3.448     0.1321E-2
  3.451     0.1296E-2
  3.455     0.1272E-2
  3.458     0.1249E-2
  3.462     0.1227E-2
  3.465     0.1205E-2
  3.469     0.1185E-2
  3.472     0.1165E-2
  3.476     0.1146E-2
  3.479     0.1128E-2
  3.483     0.1111E-2
  3.486     0.1094E-2
  3.490     0.1077E-2
  3.493     0.1062E-2
  3.497     0.1046E-2
  3.500     0.1032E-2
  3.504     0.1018E-2
  3.507     0.1004E-2
  3.511     0.9907E-3
  3.514     0.9779E-3
  3.518     0.9654E-3
  3.521     0.9534E-3
  3.525     0.9417E-3
  3.528     0.9304E-3
  3.531     0.9194E-3
  3.535     0.9088E-3
  3.538     0.8984E-3
  3.542     0.8884E-3
  3.545     0.8786E-3
  3.549     0.8691E-3
  3.552     0.8599E-3
  3.556     0.8509E-3
  3.559     0.8421E-3
  3.563     0.8336E-3
  3.566     0.8253E-3
  3.570     0.8172E-3
  3.573     0.8094E-3
  3.577     0.8017E-3
  3.580     0.7942E-3
  3.584     0.7869E-3
  3.587     0.7797E-3
  3.591     0.7728E-3
  3.594     0.7660E-3
  3.598     0.7593E-3
  3.601     0.7528E-3
  3.605     0.7465E-3
  3.608     0.7403E-3
  3.612     0.7343E-3
  3.615     0.7283E-3
  3.619     0.7225E-3
  3.622     0.7169E-3
  3.626     0.7113E-3
  3.629     0.7059E-3
  3.633     0.7006E-3
  3.636     0.6954E-3
  3.640     0.6903E-3
  3.643     0.6853E-3
  3.647     0.6804E-3
  3.650     0.6757E-3
  3.654     0.6710E-3
  3.657     0.6664E-3
  3.661     0.6619E-3
  3.664     0.6575E-3
  3.668     0.6531E-3
  3.671     0.6489E-3
  3.675     0.6447E-3
  3.678     0.6407E-3
  3.682     0.6367E-3
  3.685     0.6327E-3
  3.689     0.6289E-3
  3.692     0.6251E-3
  3.696     0.6214E-3
  3.699     0.6178E-3
  3.703     0.6142E-3
  3.706     0.6107E-3
  3.710     0.6073E-3
  3.713     0.6039E-3
  3.717     0.6006E-3
  3.720     0.5974E-3
  3.724     0.5942E-3
  3.727     0.5911E-3
  3.731     0.5881E-3
  3.734     0.5851E-3
  3.738     0.5821E-3
  3.741     0.5792E-3
  3.745     0.5764E-3
  3.748     0.5736E-3
  3.752     0.5709E-3
  3.755     0.5683E-3
  3.759     0.5657E-3
  3.762     0.5631E-3
  3.766     0.5606E-3
  3.769     0.5581E-3
  3.773     0.5557E-3
  3.776     0.5534E-3
  3.780     0.5511E-3
  3.783     0.5488E-3
  3.787     0.5466E-3
  3.790     0.5444E-3
  3.794     0.5423E-3
  3.797     0.5403E-3
  3.801     0.5382E-3
  3.804     0.5363E-3
  3.808     0.5344E-3
  3.811     0.5325E-3
  3.815     0.5307E-3
  3.818     0.5289E-3
  3.822     0.5272E-3
  3.825     0.5255E-3
  3.828     0.5238E-3
  3.832     0.5223E-3
  3.835     0.5207E-3
  3.839     0.5192E-3
  3.842     0.5178E-3
  3.846     0.5164E-3
  3.849     0.5151E-3
  3.853     0.5138E-3
  3.856     0.5125E-3
  3.860     0.5113E-3
  3.863     0.5102E-3
  3.867     0.5091E-3
  3.870     0.5080E-3
  3.874     0.5071E-3
  3.877     0.5061E-3
  3.881     0.5053E-3
  3.884     0.5044E-3
  3.888     0.5037E-3
  3.891     0.5030E-3
  3.895     0.5023E-3
  3.898     0.5017E-3
  3.902     0.5012E-3
  3.905     0.5007E-3
  3.909     0.5003E-3
  3.912     0.5000E-3
  3.916     0.4997E-3
  3.919     0.4995E-3
  3.923     0.4994E-3
  3.926     0.4993E-3
  3.930     0.4993E-3
  3.933     0.4994E-3
  3.937     0.4996E-3
  3.940     0.4998E-3
  3.944     0.5002E-3
  3.947     0.5006E-3
  3.951     0.5011E-3
  3.954     0.5017E-3
  3.958     0.5024E-3
  3.961     0.5032E-3
  3.965     0.5041E-3
  3.968     0.5051E-3
  3.972     0.5062E-3
  3.975     0.5075E-3
  3.979     0.5088E-3
  3.982     0.5103E-3
  3.986     0.5119E-3
  3.989     0.5137E-3
  3.993     0.5156E-3
  3.996     0.5176E-3
  4.000     0.5199E-3
  4.003     0.5222E-3
  4.007     0.5248E-3
  4.010     0.5275E-3
  4.014     0.5304E-3
  4.017     0.5336E-3
  4.021     0.5369E-3
  4.024     0.5405E-3
  4.028     0.5443E-3
  4.031     0.5483E-3
  4.035     0.5526E-3
  4.038     0.5573E-3
  4.042     0.5622E-3
  4.045     0.5674E-3
  4.049     0.5729E-3
  4.052     0.5788E-3
  4.056     0.5851E-3
  4.059     0.5918E-3
  4.063     0.5990E-3
  4.066     0.6066E-3
  4.070     0.6147E-3
  4.073     0.6233E-3
  4.077     0.6325E-3
  4.080     0.6423E-3
  4.084     0.6528E-3
  4.087     0.6640E-3
  4.091     0.6759E-3
  4.094     0.6887E-3
  4.098     0.7024E-3
  4.101     0.7170E-3
  4.105     0.7328E-3
  4.108     0.7496E-3
  4.112     0.7678E-3
  4.115     0.7873E-3
  4.119     0.8083E-3
  4.122     0.8309E-3
  4.126     0.8553E-3
  4.129     0.8818E-3
  4.132     0.9104E-3
  4.136     0.9414E-3
  4.139     0.9751E-3
  4.143     0.1012E-2
  4.146     0.1052E-2
  4.150     0.1095E-2
  4.153     0.1143E-2
  4.157     0.1196E-2
  4.160     0.1253E-2
  4.164     0.1317E-2
  4.167     0.1386E-2
  4.171     0.1464E-2
  4.174     0.1550E-2
  4.178     0.1645E-2
  4.181     0.1751E-2
  4.185     0.1870E-2
  4.188     0.2002E-2
  4.192     0.2151E-2
  4.195     0.2318E-2
  4.199     0.2506E-2
  4.202     0.2717E-2
  4.206     0.2955E-2
  4.209     0.3222E-2
  4.213     0.3521E-2
  4.216     0.3854E-2
    4.2199     0.0042
    4.2233     0.0046
    4.2268     0.0051
    4.2303     0.0055
    4.2338     0.0060
    4.2373     0.0064
    4.2408     0.0068
    4.2443     0.0071
    4.2478     0.0074
    4.2513     0.0075
    4.2548     0.0074
    4.2583     0.0072
    4.2618     0.0069
    4.2653     0.0065
    4.2688     0.0061
    4.2723     0.0057
    4.2758     0.0052
    4.2793     0.0048
    4.2827     0.0044
  4.286     0.3990E-2
  4.290     0.3654E-2
  4.293     0.3354E-2
  4.297     0.3086E-2
  4.300     0.2849E-2
  4.304     0.2639E-2
  4.307     0.2455E-2
  4.311     0.2292E-2
  4.314     0.2149E-2
  4.318     0.2024E-2
  4.321     0.1914E-2
  4.325     0.1818E-2
  4.328     0.1734E-2
  4.332     0.1661E-2
  4.335     0.1599E-2
  4.339     0.1546E-2
  4.342     0.1502E-2
  4.346     0.1467E-2
  4.349     0.1439E-2
  4.353     0.1418E-2
  4.356     0.1406E-2
  4.360     0.1401E-2
  4.363     0.1404E-2
  4.367     0.1414E-2
  4.370     0.1434E-2
  4.374     0.1462E-2
  4.377     0.1499E-2
  4.381     0.1547E-2
  4.384     0.1606E-2
  4.388     0.1677E-2
  4.391     0.1759E-2
  4.395     0.1854E-2
  4.398     0.1960E-2
  4.402     0.2076E-2
  4.405     0.2199E-2
  4.409     0.2323E-2
  4.412     0.2442E-2
  4.416     0.2546E-2
  4.419     0.2626E-2
  4.423     0.2672E-2
  4.426     0.2678E-2
  4.430     0.2641E-2
  4.433     0.2566E-2
  4.436     0.2457E-2
  4.440     0.2326E-2
  4.443     0.2182E-2
  4.447     0.2033E-2
  4.450     0.1887E-2
  4.454     0.1747E-2
  4.457     0.1616E-2
  4.461     0.1497E-2
  4.464     0.1388E-2
  4.468     0.1290E-2
  4.471     0.1202E-2
  4.475     0.1124E-2
  4.478     0.1054E-2
  4.482     0.9907E-3
  4.485     0.9344E-3
  4.489     0.8838E-3
  4.492     0.8384E-3
  4.496     0.7974E-3
  4.499     0.7603E-3
  4.503     0.7267E-3
  4.506     0.6962E-3
  4.510     0.6684E-3
  4.513     0.6430E-3
  4.517     0.6197E-3
  4.520     0.5983E-3
  4.524     0.5786E-3
  4.527     0.5604E-3
  4.531     0.5435E-3
  4.534     0.5279E-3
  4.538     0.5133E-3
  4.541     0.4998E-3
  4.545     0.4871E-3
  4.548     0.4753E-3
  4.552     0.4642E-3
  4.555     0.4538E-3
  4.559     0.4440E-3
  4.562     0.4348E-3
  4.566     0.4260E-3
  4.569     0.4178E-3
  4.573     0.4100E-3
  4.576     0.4026E-3
  4.580     0.3956E-3
  4.583     0.3889E-3
  4.587     0.3825E-3
  4.590     0.3765E-3
  4.594     0.3707E-3
  4.597     0.3652E-3
  4.601     0.3599E-3
  4.604     0.3548E-3
  4.608     0.3500E-3
  4.611     0.3453E-3
  4.615     0.3409E-3
  4.618     0.3366E-3
  4.622     0.3325E-3
  4.625     0.3285E-3
  4.629     0.3247E-3
  4.632     0.3210E-3
  4.636     0.3174E-3
  4.639     0.3140E-3
  4.643     0.3106E-3
  4.646     0.3074E-3
  4.650     0.3043E-3
  4.653     0.3013E-3
  4.657     0.2984E-3
  4.660     0.2955E-3
  4.664     0.2928E-3
  4.667     0.2901E-3
  4.671     0.2875E-3
  4.674     0.2850E-3
  4.678     0.2825E-3
  4.681     0.2802E-3
  4.685     0.2778E-3
  4.688     0.2756E-3
  4.692     0.2734E-3
  4.695     0.2712E-3
  4.699     0.2691E-3
  4.702     0.2671E-3
  4.706     0.2651E-3
  4.709     0.2631E-3
  4.713     0.2612E-3
  4.716     0.2594E-3
  4.720     0.2576E-3
  4.723     0.2558E-3
  4.727     0.2540E-3
  4.730     0.2523E-3
  4.733     0.2507E-3
  4.737     0.2490E-3
  4.740     0.2474E-3
  4.744     0.2459E-3
  4.747     0.2443E-3
  4.751     0.2428E-3
  4.754     0.2413E-3
  4.758     0.2399E-3
  4.761     0.2385E-3
  4.765     0.2371E-3
  4.768     0.2357E-3
  4.772     0.2343E-3
  4.775     0.2330E-3
  4.779     0.2317E-3
  4.782     0.2304E-3
  4.786     0.2292E-3
  4.789     0.2279E-3
  4.793     0.2267E-3
  4.796     0.2255E-3
  4.800     0.2243E-3
  4.803     0.2232E-3
  4.807     0.2220E-3
  4.810     0.2209E-3
  4.814     0.2198E-3
  4.817     0.2187E-3
  4.821     0.2176E-3
  4.824     0.2166E-3
  4.828     0.2155E-3
  4.831     0.2145E-3
  4.835     0.2135E-3
  4.838     0.2125E-3
  4.842     0.2115E-3
  4.845     0.2105E-3
  4.849     0.2095E-3
  4.852     0.2086E-3
  4.856     0.2076E-3
  4.859     0.2067E-3
  4.863     0.2058E-3
  4.866     0.2049E-3
  4.870     0.2040E-3
  4.873     0.2031E-3
  4.877     0.2023E-3
  4.880     0.2014E-3
  4.884     0.2005E-3
  4.887     0.1997E-3
  4.891     0.1989E-3
  4.894     0.1980E-3
  4.898     0.1972E-3
  4.901     0.1964E-3
  4.905     0.1956E-3
  4.908     0.1948E-3
  4.912     0.1941E-3
  4.915     0.1933E-3
  4.919     0.1925E-3
  4.922     0.1918E-3
# 
# 05/03/2019 at 10:41 YPP @ login1.stampede2.tacc.utexas.edu [start]
# 05/03/2019 at 10:41                                        [end]
#  
# Timing   [Min/Max/Average]: 04s/04s/04s
#
# .-Input file : amp.in
# | excitons                     # [R] Excitons
# | amplitude                    # [R] Amplitude
# | BoseTemp=  0.02585     eV    # Bosonic Temperature
# | States= "1 - 10"             # Index of the BS state(s)
# | #DipWeight                   #  Weight the contribution to the exciton WFs with the dipoles
# | Degen_Step=0.1000E-4   eV    # Maximum energy separation of two degenerate states
