#                                                           
#  ____  ____     _       ____    ____  ______      ___     
# |_  _||_  _|   / \     |_   \  /   _||_   _ \   ."   `.   
#   \ \  / /    / _ \      |   \/   |    | |_) | /  .-.  \  
#    \ \/ /    / ___ \     | |\  /| |    |  __". | |   | |  
#    _|  |_  _/ /   \ \_  _| |_\/_| |_  _| |__) |\  `-"  /  
#   |______||____| |____||_____||_____||_______/  `.___."   
#                                                           
#                                                           
#                                                           
#              GPL Version 4.1.4 Revision 76                
#                        MPI Build                          
#                http://www.yambo-code.org                  
#
# BSK|Identifier              :5641
#    |Dimension               :11943
#    |Bands                   :121 - 172
#    |Exchange           [res]: yes
#    |Correlation        [res]: yes
#    |Kernel`s coupling       : no
#    |Exchange           [cpl]: no
#    |Correlation        [cpl]: no
#    |W interaction is bare   : no
#    |ALDA kernel in R-space  : no
#    |RL vectors    [exchange]:31669
#    |RL vectors [correlation]:387
#    |E/h energy range    [ev]:-1.000000 - -1.000000
#    |Coupling range     [o/o]: 100.0000 -  100.0000
#  W |Interaction is diagonal : no
#    |Matrix size             :2845
#    |Bands                   :1 - 570
#    |e/h energy range    [ev]:-1.000000 - -1.000000
#    |Poles              [o/o]: 100.0000
#    |RL vectors in the sum   :31669
#    |[r,Vnl] included        : yes
#    |Field direction         :-.8660E-5 0.5000E-5  0.000000
#    |Coulomb Cutoff          :box z
#    |xc-Kernel               :none
# RIM|RL components      [col]:0
#    |Random points      [col]:0
#
# Electron-Hole pairs that contributes to Excitonic State 6 more than 5%
#
#  E    [eV]  Amplitude
#  
  1.439     0.6910E-3
  1.443     0.6948E-3
  1.448     0.6986E-3
  1.452     0.7024E-3
  1.457     0.7063E-3
  1.461     0.7102E-3
  1.466     0.7142E-3
  1.470     0.7182E-3
  1.474     0.7223E-3
  1.479     0.7264E-3
  1.483     0.7305E-3
  1.488     0.7347E-3
  1.492     0.7389E-3
  1.497     0.7432E-3
  1.501     0.7475E-3
  1.505     0.7519E-3
  1.510     0.7563E-3
  1.514     0.7607E-3
  1.519     0.7653E-3
  1.523     0.7698E-3
  1.528     0.7745E-3
  1.532     0.7792E-3
  1.536     0.7839E-3
  1.541     0.7887E-3
  1.545     0.7936E-3
  1.550     0.7985E-3
  1.554     0.8035E-3
  1.559     0.8086E-3
  1.563     0.8137E-3
  1.567     0.8189E-3
  1.572     0.8241E-3
  1.576     0.8295E-3
  1.581     0.8349E-3
  1.585     0.8404E-3
  1.590     0.8460E-3
  1.594     0.8517E-3
  1.598     0.8574E-3
  1.603     0.8633E-3
  1.607     0.8692E-3
  1.612     0.8752E-3
  1.616     0.8814E-3
  1.621     0.8876E-3
  1.625     0.8940E-3
  1.629     0.9005E-3
  1.634     0.9070E-3
  1.638     0.9138E-3
  1.643     0.9206E-3
  1.647     0.9276E-3
  1.652     0.9347E-3
  1.656     0.9420E-3
  1.660     0.9494E-3
  1.665     0.9569E-3
  1.669     0.9647E-3
  1.674     0.9726E-3
  1.678     0.9807E-3
  1.683     0.9891E-3
  1.687     0.9976E-3
  1.691     0.1006E-2
  1.696     0.1015E-2
  1.700     0.1025E-2
  1.705     0.1034E-2
  1.709     0.1044E-2
  1.714     0.1054E-2
  1.718     0.1064E-2
  1.722     0.1075E-2
  1.727     0.1086E-2
  1.731     0.1098E-2
  1.736     0.1109E-2
  1.740     0.1122E-2
  1.745     0.1135E-2
  1.749     0.1148E-2
  1.753     0.1162E-2
  1.758     0.1176E-2
  1.762     0.1191E-2
  1.767     0.1207E-2
  1.771     0.1224E-2
  1.776     0.1241E-2
  1.780     0.1260E-2
  1.784     0.1279E-2
  1.789     0.1300E-2
  1.793     0.1322E-2
  1.798     0.1345E-2
  1.802     0.1369E-2
  1.807     0.1396E-2
  1.811     0.1424E-2
  1.815     0.1454E-2
  1.820     0.1487E-2
  1.824     0.1522E-2
  1.829     0.1560E-2
  1.833     0.1601E-2
  1.838     0.1647E-2
  1.842     0.1696E-2
  1.846     0.1750E-2
  1.851     0.1809E-2
    1.8552     0.0019
    1.8597     0.0019
    1.8641     0.0020
    1.8685     0.0021
    1.8729     0.0022
    1.8774     0.0023
    1.8818     0.0025
    1.8862     0.0026
    1.8907     0.0027
    1.8951     0.0029
    1.8995     0.0031
    1.9039     0.0033
    1.9084     0.0035
    1.9128     0.0038
    1.9172     0.0040
    1.9217     0.0042
    1.9261     0.0044
    1.9305     0.0046
    1.9349     0.0047
    1.9394     0.0047
    1.9438     0.0047
    1.9482     0.0046
    1.9527     0.0044
    1.9571     0.0042
    1.9615     0.0040
    1.9659     0.0038
    1.9704     0.0036
    1.9748     0.0034
    1.9792     0.0032
    1.9837     0.0031
    1.9881     0.0029
    1.9925     0.0028
    1.9969     0.0027
    2.0014     0.0026
    2.0058     0.0025
    2.0102     0.0024
    2.0147     0.0023
    2.0191     0.0023
    2.0235     0.0022
    2.0280     0.0022
    2.0324     0.0021
    2.0368     0.0021
    2.0412     0.0020
  2.046     0.2023E-2
  2.050     0.2001E-2
  2.055     0.1982E-2
  2.059     0.1966E-2
  2.063     0.1952E-2
  2.068     0.1941E-2
  2.072     0.1932E-2
  2.077     0.1925E-2
  2.081     0.1920E-2
  2.086     0.1916E-2
  2.090     0.1913E-2
  2.094     0.1912E-2
  2.099     0.1912E-2
  2.103     0.1913E-2
  2.108     0.1916E-2
  2.112     0.1919E-2
  2.117     0.1923E-2
  2.121     0.1928E-2
  2.125     0.1933E-2
  2.130     0.1939E-2
  2.134     0.1946E-2
  2.139     0.1954E-2
  2.143     0.1962E-2
  2.148     0.1971E-2
  2.152     0.1980E-2
  2.156     0.1990E-2
  2.161     0.2000E-2
  2.165     0.2011E-2
  2.170     0.2022E-2
  2.174     0.2034E-2
  2.179     0.2046E-2
  2.183     0.2059E-2
  2.187     0.2072E-2
  2.192     0.2085E-2
  2.196     0.2099E-2
  2.201     0.2113E-2
  2.205     0.2127E-2
  2.210     0.2142E-2
  2.214     0.2158E-2
  2.218     0.2173E-2
  2.223     0.2189E-2
  2.227     0.2206E-2
  2.232     0.2222E-2
    2.2361     0.0022
    2.2405     0.0023
    2.2450     0.0023
    2.2494     0.0023
    2.2538     0.0023
    2.2582     0.0023
    2.2627     0.0023
    2.2671     0.0024
    2.2715     0.0024
    2.2760     0.0024
    2.2804     0.0024
    2.2848     0.0025
    2.2892     0.0025
    2.2937     0.0025
    2.2981     0.0025
    2.3025     0.0025
    2.3070     0.0026
    2.3114     0.0026
    2.3158     0.0026
    2.3202     0.0026
    2.3247     0.0027
    2.3291     0.0027
    2.3335     0.0027
    2.3380     0.0027
    2.3424     0.0028
    2.3468     0.0028
    2.3512     0.0028
    2.3557     0.0028
    2.3601     0.0029
    2.3645     0.0029
    2.3690     0.0029
    2.3734     0.0030
    2.3778     0.0030
    2.3822     0.0030
    2.3867     0.0030
    2.3911     0.0031
    2.3955     0.0031
    2.4000     0.0031
    2.4044     0.0032
    2.4088     0.0032
    2.4133     0.0032
    2.4177     0.0033
    2.4221     0.0033
    2.4265     0.0034
    2.4310     0.0034
    2.4354     0.0034
    2.4398     0.0035
    2.4443     0.0035
    2.4487     0.0035
    2.4531     0.0036
    2.4575     0.0036
    2.4620     0.0037
    2.4664     0.0037
    2.4708     0.0038
    2.4753     0.0038
    2.4797     0.0038
    2.4841     0.0039
    2.4885     0.0039
    2.4930     0.0040
    2.4974     0.0040
    2.5018     0.0041
    2.5063     0.0041
    2.5107     0.0042
    2.5151     0.0042
    2.5195     0.0043
    2.5240     0.0043
    2.5284     0.0044
    2.5328     0.0045
    2.5373     0.0045
    2.5417     0.0046
    2.5461     0.0046
    2.5505     0.0047
    2.5550     0.0047
    2.5594     0.0048
    2.5638     0.0049
    2.5683     0.0049
    2.5727     0.0050
    2.5771     0.0051
    2.5815     0.0051
    2.5860     0.0052
    2.5904     0.0053
    2.5948     0.0054
    2.5993     0.0054
    2.6037     0.0055
    2.6081     0.0056
    2.6125     0.0057
    2.6170     0.0058
    2.6214     0.0059
    2.6258     0.0059
    2.6303     0.0060
    2.6347     0.0061
    2.6391     0.0062
    2.6435     0.0063
    2.6480     0.0064
    2.6524     0.0065
    2.6568     0.0066
    2.6613     0.0067
    2.6657     0.0068
    2.6701     0.0069
    2.6745     0.0070
    2.6790     0.0072
    2.6834     0.0073
    2.6878     0.0074
    2.6923     0.0075
    2.6967     0.0076
    2.7011     0.0078
    2.7055     0.0079
    2.7100     0.0081
    2.7144     0.0082
    2.7188     0.0083
    2.7233     0.0085
    2.7277     0.0086
    2.7321     0.0088
    2.7365     0.0090
    2.7410     0.0091
    2.7454     0.0093
    2.7498     0.0095
    2.7543     0.0097
    2.7587     0.0098
   2.76312    0.01003
   2.76755    0.01022
   2.77198    0.01043
   2.77641    0.01064
   2.78084    0.01085
   2.78527    0.01107
   2.78969    0.01130
   2.79412    0.01154
   2.79855    0.01178
   2.80298    0.01203
   2.80741    0.01229
   2.81184    0.01256
   2.81627    0.01283
   2.82070    0.01312
   2.82512    0.01342
   2.82955    0.01372
   2.83398    0.01404
   2.83841    0.01436
   2.84284    0.01470
   2.84727    0.01505
   2.85170    0.01542
   2.85613    0.01579
   2.86055    0.01618
   2.86498    0.01659
   2.86941    0.01701
   2.87384    0.01745
   2.87827    0.01790
   2.88270    0.01837
   2.88713    0.01886
   2.89155    0.01937
   2.89598    0.01990
   2.90041    0.02046
   2.90484    0.02103
   2.90927    0.02163
   2.91370    0.02226
   2.91813    0.02292
   2.92256    0.02360
   2.92698    0.02431
   2.93141    0.02506
   2.93584    0.02584
   2.94027    0.02666
   2.94470    0.02752
   2.94913    0.02842
   2.95356    0.02937
   2.95799    0.03036
   2.96241    0.03141
   2.96684    0.03250
   2.97127    0.03366
   2.97570    0.03488
   2.98013    0.03616
   2.98456    0.03752
   2.98899    0.03896
   2.99342    0.04047
   2.99784    0.04208
   3.00227    0.04378
   3.00670    0.04559
   3.01113    0.04751
   3.01556    0.04955
   3.01999    0.05173
   3.02442    0.05404
   3.02885    0.05652
   3.03327    0.05917
   3.03770    0.06200
   3.04213    0.06504
   3.04656    0.06830
   3.05099    0.07181
   3.05542    0.07559
   3.05985    0.07966
   3.06428    0.08407
   3.06870    0.08884
   3.07313    0.09402
   3.07756    0.09965
  3.081991   0.105784
  3.086420   0.112477
  3.090848   0.119799
  3.095277   0.127827
  3.099706   0.136649
  3.104135   0.146366
  3.108563   0.157095
  3.112992   0.168970
  3.117421   0.182144
  3.121850   0.196795
  3.126278   0.213126
  3.130707   0.231369
  3.135136   0.251790
  3.139565   0.274683
  3.143993   0.300380
  3.148422   0.329239
  3.152851   0.361637
  3.157279   0.397955
  3.161708   0.438533
  3.166137   0.483636
  3.170566   0.533362
  3.174994   0.587554
  3.179423   0.645667
  3.183852   0.706628
  3.188281   0.768720
  3.192709   0.829517
  3.197138   0.885921
  3.201567   0.934394
  3.205996   0.971375
  3.210424   0.993856
  3.214853   1.000000
  3.219282   0.989535
  3.223711   0.963782
  3.228139   0.925280
  3.232568   0.877196
  3.236997   0.822745
  3.241426   0.764825
  3.245854   0.705836
  3.250283   0.647661
  3.254712   0.591715
  3.259141   0.538972
  3.263569   0.490044
  3.267998   0.445224
  3.272427   0.404558
  3.276855   0.367924
  3.281284   0.335077
  3.285713   0.305712
  3.290142   0.279502
  3.294570   0.256113
  3.298999   0.235233
  3.303428   0.216572
  3.307857   0.199865
  3.312285   0.184882
  3.316714   0.171414
  3.321143   0.159282
  3.325572   0.148328
  3.330000   0.138412
  3.334429   0.129417
  3.338858   0.121236
  3.343287   0.113780
  3.347715   0.106969
  3.352144   0.100733
   3.35657    0.09501
   3.36100    0.08975
   3.36543    0.08491
   3.36986    0.08044
   3.37429    0.07630
   3.37872    0.07247
   3.38315    0.06892
   3.38757    0.06562
   3.39200    0.06254
   3.39643    0.05967
   3.40086    0.05700
   3.40529    0.05450
   3.40972    0.05215
   3.41415    0.04996
   3.41858    0.04790
   3.42300    0.04596
   3.42743    0.04413
   3.43186    0.04242
   3.43629    0.04080
   3.44072    0.03927
   3.44515    0.03782
   3.44958    0.03646
   3.45401    0.03516
   3.45843    0.03393
   3.46286    0.03277
   3.46729    0.03167
   3.47172    0.03062
   3.47615    0.02962
   3.48058    0.02867
   3.48501    0.02776
   3.48944    0.02690
   3.49386    0.02608
   3.49829    0.02529
   3.50272    0.02454
   3.50715    0.02382
   3.51158    0.02314
   3.51601    0.02248
   3.52044    0.02185
   3.52486    0.02125
   3.52929    0.02067
   3.53372    0.02012
   3.53815    0.01959
   3.54258    0.01908
   3.54701    0.01858
   3.55144    0.01811
   3.55587    0.01766
   3.56029    0.01722
   3.56472    0.01680
   3.56915    0.01640
   3.57358    0.01601
   3.57801    0.01563
   3.58244    0.01527
   3.58687    0.01492
   3.59130    0.01459
   3.59572    0.01426
   3.60015    0.01395
   3.60458    0.01364
   3.60901    0.01335
   3.61344    0.01307
   3.61787    0.01279
   3.62230    0.01253
   3.62673    0.01227
   3.63115    0.01202
   3.63558    0.01178
   3.64001    0.01155
   3.64444    0.01132
   3.64887    0.01111
   3.65330    0.01089
   3.65773    0.01069
   3.66216    0.01049
   3.66658    0.01030
   3.67101    0.01011
    3.6754     0.0099
    3.6799     0.0098
    3.6843     0.0096
    3.6887     0.0094
    3.6932     0.0093
    3.6976     0.0091
    3.7020     0.0089
    3.7064     0.0088
    3.7109     0.0087
    3.7153     0.0085
    3.7197     0.0084
    3.7242     0.0082
    3.7286     0.0081
    3.7330     0.0080
    3.7374     0.0079
    3.7419     0.0078
    3.7463     0.0076
    3.7507     0.0075
    3.7552     0.0074
    3.7596     0.0073
    3.7640     0.0072
    3.7684     0.0071
    3.7729     0.0070
    3.7773     0.0069
    3.7817     0.0068
    3.7862     0.0067
    3.7906     0.0066
    3.7950     0.0066
    3.7994     0.0065
    3.8039     0.0064
    3.8083     0.0063
    3.8127     0.0062
    3.8172     0.0062
    3.8216     0.0061
    3.8260     0.0060
    3.8304     0.0060
    3.8349     0.0059
    3.8393     0.0058
    3.8437     0.0058
    3.8482     0.0057
    3.8526     0.0057
    3.8570     0.0056
    3.8614     0.0056
    3.8659     0.0055
    3.8703     0.0055
    3.8747     0.0054
    3.8792     0.0054
    3.8836     0.0053
    3.8880     0.0053
    3.8925     0.0052
    3.8969     0.0052
    3.9013     0.0052
    3.9057     0.0051
    3.9102     0.0051
    3.9146     0.0051
    3.9190     0.0050
    3.9235     0.0050
    3.9279     0.0050
    3.9323     0.0049
    3.9367     0.0049
    3.9412     0.0049
    3.9456     0.0049
    3.9500     0.0049
    3.9545     0.0049
    3.9589     0.0048
    3.9633     0.0048
    3.9677     0.0048
    3.9722     0.0048
    3.9766     0.0048
    3.9810     0.0048
    3.9855     0.0048
    3.9899     0.0048
    3.9943     0.0048
    3.9987     0.0049
    4.0032     0.0049
    4.0076     0.0049
    4.0120     0.0049
    4.0165     0.0049
    4.0209     0.0050
    4.0253     0.0050
    4.0297     0.0050
    4.0342     0.0051
    4.0386     0.0051
    4.0430     0.0052
    4.0475     0.0053
    4.0519     0.0053
    4.0563     0.0054
    4.0607     0.0055
    4.0652     0.0056
    4.0696     0.0057
    4.0740     0.0058
    4.0785     0.0059
    4.0829     0.0060
    4.0873     0.0062
    4.0917     0.0063
    4.0962     0.0065
    4.1006     0.0067
    4.1050     0.0069
    4.1095     0.0071
    4.1139     0.0073
    4.1183     0.0076
    4.1227     0.0079
    4.1272     0.0083
    4.1316     0.0086
    4.1360     0.0090
    4.1405     0.0095
    4.1449     0.0100
   4.14932    0.01053
   4.15375    0.01115
   4.15817    0.01184
   4.16260    0.01262
   4.16703    0.01349
   4.17146    0.01447
   4.17589    0.01557
   4.18032    0.01681
   4.18475    0.01820
   4.18918    0.01976
   4.19360    0.02151
   4.19803    0.02347
   4.20246    0.02564
   4.20689    0.02801
   4.21132    0.03059
   4.21575    0.03334
   4.22018    0.03620
   4.22461    0.03907
   4.22903    0.04184
   4.23346    0.04433
   4.23789    0.04637
   4.24232    0.04777
   4.24675    0.04840
   4.25118    0.04818
   4.25561    0.04712
   4.26004    0.04534
   4.26446    0.04300
   4.26889    0.04029
   4.27332    0.03739
   4.27775    0.03447
   4.28218    0.03164
   4.28661    0.02897
   4.29104    0.02651
   4.29547    0.02428
   4.29989    0.02228
   4.30432    0.02050
   4.30875    0.01892
   4.31318    0.01753
   4.31761    0.01631
   4.32204    0.01525
   4.32647    0.01432
   4.33090    0.01351
   4.33532    0.01282
   4.33975    0.01223
   4.34418    0.01173
   4.34861    0.01131
   4.35304    0.01097
   4.35747    0.01071
   4.36190    0.01051
   4.36633    0.01037
   4.37075    0.01028
   4.37518    0.01023
   4.37961    0.01021
   4.38404    0.01021
   4.38847    0.01023
   4.39290    0.01025
   4.39733    0.01028
   4.40176    0.01030
   4.40618    0.01032
   4.41061    0.01031
   4.41504    0.01026
   4.41947    0.01016
    4.4239     0.0100
    4.4283     0.0097
    4.4328     0.0094
    4.4372     0.0090
    4.4416     0.0086
    4.4460     0.0081
    4.4505     0.0077
    4.4549     0.0072
    4.4593     0.0068
    4.4638     0.0064
    4.4682     0.0060
    4.4726     0.0057
    4.4770     0.0054
    4.4815     0.0051
    4.4859     0.0048
    4.4903     0.0046
  4.495     0.4363E-2
  4.499     0.4170E-2
  4.504     0.3994E-2
  4.508     0.3833E-2
  4.512     0.3685E-2
  4.517     0.3550E-2
  4.521     0.3425E-2
  4.526     0.3310E-2
  4.530     0.3203E-2
  4.535     0.3104E-2
  4.539     0.3012E-2
  4.543     0.2926E-2
  4.548     0.2845E-2
  4.552     0.2770E-2
  4.557     0.2699E-2
  4.561     0.2632E-2
  4.566     0.2569E-2
  4.570     0.2510E-2
  4.574     0.2454E-2
  4.579     0.2400E-2
  4.583     0.2350E-2
  4.588     0.2302E-2
  4.592     0.2256E-2
  4.597     0.2212E-2
  4.601     0.2170E-2
  4.605     0.2130E-2
  4.610     0.2092E-2
  4.614     0.2056E-2
  4.619     0.2021E-2
  4.623     0.1987E-2
  4.628     0.1954E-2
  4.632     0.1923E-2
  4.636     0.1893E-2
  4.641     0.1864E-2
  4.645     0.1837E-2
  4.650     0.1810E-2
  4.654     0.1784E-2
  4.659     0.1759E-2
  4.663     0.1734E-2
  4.667     0.1711E-2
  4.672     0.1688E-2
  4.676     0.1666E-2
  4.681     0.1645E-2
  4.685     0.1624E-2
  4.690     0.1604E-2
  4.694     0.1584E-2
  4.698     0.1565E-2
  4.703     0.1547E-2
  4.707     0.1529E-2
  4.712     0.1511E-2
  4.716     0.1494E-2
  4.721     0.1478E-2
  4.725     0.1462E-2
  4.729     0.1446E-2
  4.734     0.1431E-2
  4.738     0.1416E-2
  4.743     0.1401E-2
  4.747     0.1387E-2
  4.752     0.1373E-2
  4.756     0.1360E-2
  4.760     0.1347E-2
  4.765     0.1334E-2
  4.769     0.1321E-2
  4.774     0.1309E-2
  4.778     0.1297E-2
  4.783     0.1285E-2
  4.787     0.1274E-2
  4.791     0.1262E-2
  4.796     0.1251E-2
  4.800     0.1241E-2
  4.805     0.1230E-2
  4.809     0.1220E-2
  4.814     0.1210E-2
  4.818     0.1200E-2
  4.822     0.1190E-2
  4.827     0.1181E-2
  4.831     0.1171E-2
  4.836     0.1162E-2
  4.840     0.1154E-2
  4.845     0.1145E-2
  4.849     0.1136E-2
  4.853     0.1128E-2
  4.858     0.1120E-2
  4.862     0.1112E-2
  4.867     0.1104E-2
  4.871     0.1096E-2
  4.876     0.1089E-2
  4.880     0.1082E-2
  4.884     0.1074E-2
  4.889     0.1067E-2
  4.893     0.1061E-2
  4.898     0.1054E-2
  4.902     0.1047E-2
  4.907     0.1041E-2
  4.911     0.1035E-2
  4.915     0.1028E-2
  4.920     0.1022E-2
  4.924     0.1017E-2
  4.929     0.1011E-2
  4.933     0.1005E-2
  4.938     0.9999E-3
  4.942     0.9946E-3
  4.946     0.9895E-3
  4.951     0.9844E-3
  4.955     0.9796E-3
  4.960     0.9748E-3
  4.964     0.9702E-3
  4.969     0.9658E-3
  4.973     0.9614E-3
  4.977     0.9573E-3
  4.982     0.9532E-3
  4.986     0.9493E-3
  4.991     0.9456E-3
  4.995     0.9420E-3
  5.000     0.9386E-3
  5.004     0.9353E-3
  5.008     0.9321E-3
  5.013     0.9291E-3
  5.017     0.9263E-3
  5.022     0.9237E-3
  5.026     0.9212E-3
  5.031     0.9189E-3
  5.035     0.9167E-3
  5.039     0.9148E-3
  5.044     0.9130E-3
  5.048     0.9115E-3
  5.053     0.9101E-3
  5.057     0.9090E-3
  5.062     0.9080E-3
  5.066     0.9073E-3
  5.070     0.9069E-3
  5.075     0.9066E-3
  5.079     0.9067E-3
  5.084     0.9070E-3
  5.088     0.9075E-3
  5.093     0.9084E-3
  5.097     0.9096E-3
  5.101     0.9111E-3
  5.106     0.9130E-3
  5.110     0.9152E-3
  5.115     0.9178E-3
  5.119     0.9208E-3
  5.124     0.9243E-3
  5.128     0.9282E-3
  5.132     0.9326E-3
  5.137     0.9375E-3
  5.141     0.9430E-3
  5.146     0.9491E-3
  5.150     0.9558E-3
  5.155     0.9633E-3
  5.159     0.9715E-3
  5.163     0.9805E-3
  5.168     0.9904E-3
  5.172     0.1001E-2
  5.177     0.1013E-2
  5.181     0.1026E-2
  5.186     0.1040E-2
  5.190     0.1056E-2
  5.195     0.1073E-2
  5.199     0.1091E-2
  5.203     0.1112E-2
  5.208     0.1134E-2
  5.212     0.1158E-2
  5.217     0.1185E-2
  5.221     0.1214E-2
  5.226     0.1247E-2
  5.230     0.1282E-2
  5.234     0.1321E-2
  5.239     0.1365E-2
  5.243     0.1412E-2
  5.248     0.1465E-2
  5.252     0.1524E-2
  5.257     0.1589E-2
  5.261     0.1661E-2
  5.265     0.1742E-2
  5.270     0.1833E-2
  5.274     0.1934E-2
  5.279     0.2048E-2
  5.283     0.2175E-2
  5.288     0.2319E-2
  5.292     0.2481E-2
  5.296     0.2663E-2
  5.301     0.2868E-2
  5.305     0.3099E-2
  5.310     0.3357E-2
  5.314     0.3644E-2
  5.319     0.3961E-2
  5.323     0.4307E-2
  5.327     0.4676E-2
  5.332     0.5061E-2
    5.3362     0.0054
    5.3406     0.0058
    5.3451     0.0062
    5.3495     0.0064
    5.3539     0.0066
    5.3584     0.0067
    5.3628     0.0067
    5.3672     0.0066
    5.3716     0.0064
    5.3761     0.0061
    5.3805     0.0057
  5.385     0.5357E-2
  5.389     0.4964E-2
  5.394     0.4576E-2
  5.398     0.4206E-2
  5.403     0.3861E-2
  5.407     0.3544E-2
  5.412     0.3256E-2
  5.416     0.2997E-2
  5.420     0.2766E-2
  5.425     0.2559E-2
  5.429     0.2375E-2
  5.434     0.2211E-2
  5.438     0.2064E-2
  5.443     0.1934E-2
  5.447     0.1817E-2
  5.451     0.1712E-2
  5.456     0.1618E-2
  5.460     0.1533E-2
  5.465     0.1456E-2
  5.469     0.1387E-2
  5.474     0.1324E-2
  5.478     0.1267E-2
  5.482     0.1214E-2
  5.487     0.1167E-2
  5.491     0.1123E-2
  5.496     0.1082E-2
  5.500     0.1045E-2
  5.505     0.1011E-2
  5.509     0.9791E-3
  5.513     0.9496E-3
  5.518     0.9222E-3
  5.522     0.8967E-3
  5.527     0.8729E-3
  5.531     0.8507E-3
  5.536     0.8298E-3
  5.540     0.8103E-3
  5.544     0.7919E-3
  5.549     0.7747E-3
  5.553     0.7584E-3
  5.558     0.7430E-3
  5.562     0.7285E-3
  5.567     0.7148E-3
  5.571     0.7017E-3
  5.575     0.6894E-3
  5.580     0.6776E-3
  5.584     0.6664E-3
  5.589     0.6558E-3
  5.593     0.6456E-3
  5.598     0.6359E-3
  5.602     0.6266E-3
  5.606     0.6177E-3
  5.611     0.6092E-3
  5.615     0.6011E-3
  5.620     0.5932E-3
  5.624     0.5857E-3
  5.629     0.5785E-3
  5.633     0.5715E-3
  5.637     0.5648E-3
  5.642     0.5583E-3
  5.646     0.5521E-3
  5.651     0.5460E-3
  5.655     0.5402E-3
  5.660     0.5346E-3
  5.664     0.5291E-3
  5.668     0.5238E-3
  5.673     0.5187E-3
  5.677     0.5137E-3
  5.682     0.5089E-3
  5.686     0.5042E-3
  5.691     0.4997E-3
  5.695     0.4953E-3
  5.699     0.4910E-3
  5.704     0.4868E-3
  5.708     0.4827E-3
  5.713     0.4787E-3
  5.717     0.4748E-3
  5.722     0.4710E-3
  5.726     0.4674E-3
  5.730     0.4638E-3
  5.735     0.4602E-3
  5.739     0.4568E-3
  5.744     0.4534E-3
  5.748     0.4501E-3
  5.753     0.4469E-3
  5.757     0.4438E-3
  5.761     0.4407E-3
  5.766     0.4377E-3
  5.770     0.4347E-3
  5.775     0.4318E-3
  5.779     0.4290E-3
  5.784     0.4262E-3
  5.788     0.4234E-3
  5.792     0.4207E-3
  5.797     0.4181E-3
  5.801     0.4155E-3
  5.806     0.4129E-3
  5.810     0.4104E-3
  5.815     0.4080E-3
  5.819     0.4055E-3
  5.823     0.4032E-3
  5.828     0.4008E-3
  5.832     0.3985E-3
  5.837     0.3962E-3
  5.841     0.3940E-3
  5.846     0.3918E-3
  5.850     0.3896E-3
  5.854     0.3875E-3
  5.859     0.3854E-3
  5.863     0.3833E-3
# 
# 05/03/2019 at 12:55 YPP @ login2.stampede2.tacc.utexas.edu [start]
# 05/03/2019 at 12:55                                        [end]
#  
# Timing   [Min/Max/Average]: 03s/03s/03s
#
# .-Input file : amp.in
# | excitons                     # [R] Excitons
# | amplitude                    # [R] Amplitude
# | BoseTemp=  0.02585     eV    # Bosonic Temperature
# | States= "1 - 10"             # Index of the BS state(s)
# | #DipWeight                   #  Weight the contribution to the exciton WFs with the dipoles
# | Degen_Step=0.1000E-4   eV    # Maximum energy separation of two degenerate states
