#                                                           
#  ____  ____     _       ____    ____  ______      ___     
# |_  _||_  _|   / \     |_   \  /   _||_   _ \   ."   `.   
#   \ \  / /    / _ \      |   \/   |    | |_) | /  .-.  \  
#    \ \/ /    / ___ \     | |\  /| |    |  __". | |   | |  
#    _|  |_  _/ /   \ \_  _| |_\/_| |_  _| |__) |\  `-"  /  
#   |______||____| |____||_____||_____||_______/  `.___."   
#                                                           
#                                                           
#                                                           
#              GPL Version 4.1.4 Revision 76                
#                        MPI Build                          
#                http://www.yambo-code.org                  
#
# BSK|Identifier              :5641
#    |Dimension               :11943
#    |Bands                   :121 - 172
#    |Exchange           [res]: yes
#    |Correlation        [res]: yes
#    |Kernel`s coupling       : no
#    |Exchange           [cpl]: no
#    |Correlation        [cpl]: no
#    |W interaction is bare   : no
#    |ALDA kernel in R-space  : no
#    |RL vectors    [exchange]:31669
#    |RL vectors [correlation]:387
#    |E/h energy range    [ev]:-1.000000 - -1.000000
#    |Coupling range     [o/o]: 100.0000 -  100.0000
#  W |Interaction is diagonal : no
#    |Matrix size             :2845
#    |Bands                   :1 - 570
#    |e/h energy range    [ev]:-1.000000 - -1.000000
#    |Poles              [o/o]: 100.0000
#    |RL vectors in the sum   :31669
#    |[r,Vnl] included        : yes
#    |Field direction         :-.8660E-5 0.5000E-5  0.000000
#    |Coulomb Cutoff          :box z
#    |xc-Kernel               :none
# RIM|RL components      [col]:0
#    |Random points      [col]:0
#
# Electron-Hole pairs that contributes to Excitonic State 2 more than 5%
#
#  E    [eV]  Amplitude
#  
  1.516     0.6186E-3
  1.517     0.6211E-3
  1.518     0.6236E-3
  1.519     0.6261E-3
  1.520     0.6286E-3
  1.521     0.6311E-3
  1.522     0.6337E-3
  1.523     0.6362E-3
  1.524     0.6388E-3
  1.525     0.6414E-3
  1.526     0.6440E-3
  1.527     0.6466E-3
  1.528     0.6492E-3
  1.530     0.6519E-3
  1.531     0.6546E-3
  1.532     0.6573E-3
  1.533     0.6600E-3
  1.534     0.6627E-3
  1.535     0.6654E-3
  1.536     0.6682E-3
  1.537     0.6709E-3
  1.538     0.6737E-3
  1.539     0.6765E-3
  1.540     0.6794E-3
  1.541     0.6822E-3
  1.542     0.6851E-3
  1.543     0.6879E-3
  1.544     0.6908E-3
  1.545     0.6937E-3
  1.546     0.6967E-3
  1.547     0.6996E-3
  1.548     0.7026E-3
  1.549     0.7056E-3
  1.550     0.7086E-3
  1.551     0.7116E-3
  1.552     0.7147E-3
  1.553     0.7177E-3
  1.554     0.7208E-3
  1.555     0.7239E-3
  1.556     0.7270E-3
  1.557     0.7302E-3
  1.558     0.7334E-3
  1.559     0.7365E-3
  1.560     0.7397E-3
  1.561     0.7430E-3
  1.562     0.7462E-3
  1.563     0.7495E-3
  1.564     0.7528E-3
  1.565     0.7561E-3
  1.566     0.7594E-3
  1.567     0.7628E-3
  1.569     0.7662E-3
  1.570     0.7696E-3
  1.571     0.7730E-3
  1.572     0.7765E-3
  1.573     0.7799E-3
  1.574     0.7834E-3
  1.575     0.7869E-3
  1.576     0.7905E-3
  1.577     0.7940E-3
  1.578     0.7976E-3
  1.579     0.8013E-3
  1.580     0.8049E-3
  1.581     0.8086E-3
  1.582     0.8123E-3
  1.583     0.8160E-3
  1.584     0.8197E-3
  1.585     0.8235E-3
  1.586     0.8273E-3
  1.587     0.8311E-3
  1.588     0.8349E-3
  1.589     0.8388E-3
  1.590     0.8427E-3
  1.591     0.8466E-3
  1.592     0.8506E-3
  1.593     0.8546E-3
  1.594     0.8586E-3
  1.595     0.8626E-3
  1.596     0.8667E-3
  1.597     0.8708E-3
  1.598     0.8749E-3
  1.599     0.8791E-3
  1.600     0.8832E-3
  1.601     0.8874E-3
  1.602     0.8917E-3
  1.603     0.8960E-3
  1.604     0.9003E-3
  1.605     0.9046E-3
  1.607     0.9090E-3
  1.608     0.9134E-3
  1.609     0.9178E-3
  1.610     0.9223E-3
  1.611     0.9268E-3
  1.612     0.9313E-3
  1.613     0.9359E-3
  1.614     0.9405E-3
  1.615     0.9451E-3
  1.616     0.9498E-3
  1.617     0.9545E-3
  1.618     0.9592E-3
  1.619     0.9640E-3
  1.620     0.9688E-3
  1.621     0.9736E-3
  1.622     0.9785E-3
  1.623     0.9834E-3
  1.624     0.9883E-3
  1.625     0.9933E-3
  1.626     0.9984E-3
  1.627     0.1003E-2
  1.628     0.1009E-2
  1.629     0.1014E-2
  1.630     0.1019E-2
  1.631     0.1024E-2
  1.632     0.1029E-2
  1.633     0.1035E-2
  1.634     0.1040E-2
  1.635     0.1045E-2
  1.636     0.1051E-2
  1.637     0.1056E-2
  1.638     0.1062E-2
  1.639     0.1067E-2
  1.640     0.1073E-2
  1.641     0.1079E-2
  1.642     0.1084E-2
  1.643     0.1090E-2
  1.645     0.1096E-2
  1.646     0.1102E-2
  1.647     0.1107E-2
  1.648     0.1113E-2
  1.649     0.1119E-2
  1.650     0.1125E-2
  1.651     0.1131E-2
  1.652     0.1138E-2
  1.653     0.1144E-2
  1.654     0.1150E-2
  1.655     0.1156E-2
  1.656     0.1163E-2
  1.657     0.1169E-2
  1.658     0.1175E-2
  1.659     0.1182E-2
  1.660     0.1188E-2
  1.661     0.1195E-2
  1.662     0.1202E-2
  1.663     0.1208E-2
  1.664     0.1215E-2
  1.665     0.1222E-2
  1.666     0.1229E-2
  1.667     0.1236E-2
  1.668     0.1243E-2
  1.669     0.1250E-2
  1.670     0.1257E-2
  1.671     0.1264E-2
  1.672     0.1271E-2
  1.673     0.1278E-2
  1.674     0.1286E-2
  1.675     0.1293E-2
  1.676     0.1301E-2
  1.677     0.1308E-2
  1.678     0.1316E-2
  1.679     0.1323E-2
  1.680     0.1331E-2
  1.681     0.1339E-2
  1.682     0.1347E-2
  1.684     0.1355E-2
  1.685     0.1363E-2
  1.686     0.1371E-2
  1.687     0.1379E-2
  1.688     0.1387E-2
  1.689     0.1396E-2
  1.690     0.1404E-2
  1.691     0.1412E-2
  1.692     0.1421E-2
  1.693     0.1429E-2
  1.694     0.1438E-2
  1.695     0.1447E-2
  1.696     0.1456E-2
  1.697     0.1465E-2
  1.698     0.1474E-2
  1.699     0.1483E-2
  1.700     0.1492E-2
  1.701     0.1501E-2
  1.702     0.1511E-2
  1.703     0.1520E-2
  1.704     0.1530E-2
  1.705     0.1539E-2
  1.706     0.1549E-2
  1.707     0.1559E-2
  1.708     0.1569E-2
  1.709     0.1579E-2
  1.710     0.1589E-2
  1.711     0.1599E-2
  1.712     0.1609E-2
  1.713     0.1620E-2
  1.714     0.1630E-2
  1.715     0.1641E-2
  1.716     0.1651E-2
  1.717     0.1662E-2
  1.718     0.1673E-2
  1.719     0.1684E-2
  1.720     0.1695E-2
  1.722     0.1706E-2
  1.723     0.1718E-2
    1.7236     0.0017
    1.7246     0.0017
    1.7256     0.0018
    1.7266     0.0018
    1.7277     0.0018
    1.7287     0.0018
    1.7297     0.0018
    1.7308     0.0018
    1.7318     0.0018
    1.7328     0.0018
    1.7338     0.0019
    1.7349     0.0019
    1.7359     0.0019
    1.7369     0.0019
    1.7379     0.0019
    1.7390     0.0019
    1.7400     0.0019
    1.7410     0.0019
    1.7420     0.0020
    1.7431     0.0020
    1.7441     0.0020
    1.7451     0.0020
    1.7462     0.0020
    1.7472     0.0020
    1.7482     0.0020
    1.7492     0.0021
    1.7503     0.0021
    1.7513     0.0021
    1.7523     0.0021
    1.7533     0.0021
    1.7544     0.0021
    1.7554     0.0021
    1.7564     0.0022
    1.7574     0.0022
    1.7585     0.0022
    1.7595     0.0022
    1.7605     0.0022
    1.7616     0.0022
    1.7626     0.0023
    1.7636     0.0023
    1.7646     0.0023
    1.7657     0.0023
    1.7667     0.0023
    1.7677     0.0024
    1.7687     0.0024
    1.7698     0.0024
    1.7708     0.0024
    1.7718     0.0024
    1.7728     0.0024
    1.7739     0.0025
    1.7749     0.0025
    1.7759     0.0025
    1.7770     0.0025
    1.7780     0.0025
    1.7790     0.0026
    1.7800     0.0026
    1.7811     0.0026
    1.7821     0.0026
    1.7831     0.0027
    1.7841     0.0027
    1.7852     0.0027
    1.7862     0.0027
    1.7872     0.0027
    1.7883     0.0028
    1.7893     0.0028
    1.7903     0.0028
    1.7913     0.0028
    1.7924     0.0029
    1.7934     0.0029
    1.7944     0.0029
    1.7954     0.0029
    1.7965     0.0030
    1.7975     0.0030
    1.7985     0.0030
    1.7995     0.0030
    1.8006     0.0031
    1.8016     0.0031
    1.8026     0.0031
    1.8037     0.0032
    1.8047     0.0032
    1.8057     0.0032
    1.8067     0.0032
    1.8078     0.0033
    1.8088     0.0033
    1.8098     0.0033
    1.8108     0.0034
    1.8119     0.0034
    1.8129     0.0034
    1.8139     0.0035
    1.8149     0.0035
    1.8160     0.0035
    1.8170     0.0036
    1.8180     0.0036
    1.8191     0.0036
    1.8201     0.0037
    1.8211     0.0037
    1.8221     0.0037
    1.8232     0.0038
    1.8242     0.0038
    1.8252     0.0038
    1.8262     0.0039
    1.8273     0.0039
    1.8283     0.0040
    1.8293     0.0040
    1.8303     0.0040
    1.8314     0.0041
    1.8324     0.0041
    1.8334     0.0042
    1.8345     0.0042
    1.8355     0.0043
    1.8365     0.0043
    1.8375     0.0044
    1.8386     0.0044
    1.8396     0.0044
    1.8406     0.0045
    1.8416     0.0045
    1.8427     0.0046
    1.8437     0.0046
    1.8447     0.0047
    1.8457     0.0047
    1.8468     0.0048
    1.8478     0.0049
    1.8488     0.0049
    1.8499     0.0050
    1.8509     0.0050
    1.8519     0.0051
    1.8529     0.0051
    1.8540     0.0052
    1.8550     0.0053
    1.8560     0.0053
    1.8570     0.0054
    1.8581     0.0054
    1.8591     0.0055
    1.8601     0.0056
    1.8612     0.0056
    1.8622     0.0057
    1.8632     0.0058
    1.8642     0.0059
    1.8653     0.0059
    1.8663     0.0060
    1.8673     0.0061
    1.8683     0.0061
    1.8694     0.0062
    1.8704     0.0063
    1.8714     0.0064
    1.8724     0.0065
    1.8735     0.0066
    1.8745     0.0066
    1.8755     0.0067
    1.8766     0.0068
    1.8776     0.0069
    1.8786     0.0070
    1.8796     0.0071
    1.8807     0.0072
    1.8817     0.0073
    1.8827     0.0074
    1.8837     0.0075
    1.8848     0.0076
    1.8858     0.0077
    1.8868     0.0078
    1.8878     0.0079
    1.8889     0.0081
    1.8899     0.0082
    1.8909     0.0083
    1.8920     0.0084
    1.8930     0.0085
    1.8940     0.0087
    1.8950     0.0088
    1.8961     0.0089
    1.8971     0.0091
    1.8981     0.0092
    1.8991     0.0094
    1.9002     0.0095
    1.9012     0.0097
    1.9022     0.0098
    1.9032     0.0100
   1.90428    0.01013
   1.90530    0.01029
   1.90633    0.01046
   1.90736    0.01064
   1.90838    0.01082
   1.90941    0.01100
   1.91044    0.01119
   1.91146    0.01138
   1.91249    0.01158
   1.91352    0.01178
   1.91454    0.01199
   1.91557    0.01221
   1.91660    0.01243
   1.91762    0.01265
   1.91865    0.01289
   1.91968    0.01313
   1.92070    0.01337
   1.92173    0.01363
   1.92276    0.01389
   1.92378    0.01415
   1.92481    0.01443
   1.92584    0.01472
   1.92687    0.01501
   1.92789    0.01531
   1.92892    0.01562
   1.92995    0.01594
   1.93097    0.01627
   1.93200    0.01661
   1.93303    0.01697
   1.93405    0.01733
   1.93508    0.01771
   1.93611    0.01809
   1.93713    0.01850
   1.93816    0.01891
   1.93919    0.01934
   1.94021    0.01978
   1.94124    0.02024
   1.94227    0.02072
   1.94329    0.02121
   1.94432    0.02172
   1.94535    0.02225
   1.94637    0.02280
   1.94740    0.02337
   1.94843    0.02397
   1.94945    0.02458
   1.95048    0.02522
   1.95151    0.02589
   1.95253    0.02658
   1.95356    0.02730
   1.95459    0.02806
   1.95562    0.02884
   1.95664    0.02966
   1.95767    0.03051
   1.95870    0.03140
   1.95972    0.03233
   1.96075    0.03331
   1.96178    0.03433
   1.96280    0.03540
   1.96383    0.03651
   1.96486    0.03769
   1.96588    0.03892
   1.96691    0.04022
   1.96794    0.04158
   1.96896    0.04302
   1.96999    0.04453
   1.97102    0.04612
   1.97204    0.04781
   1.97307    0.04959
   1.97410    0.05147
   1.97512    0.05346
   1.97615    0.05558
   1.97718    0.05783
   1.97820    0.06022
   1.97923    0.06276
   1.98026    0.06547
   1.98128    0.06837
   1.98231    0.07146
   1.98334    0.07478
   1.98436    0.07834
   1.98539    0.08216
   1.98642    0.08628
   1.98745    0.09073
   1.98847    0.09553
  1.989499   0.100729
  1.990525   0.106375
  1.991552   0.112516
  1.992579   0.119212
  1.993606   0.126529
  1.994633   0.134545
  1.995659   0.143345
  1.996686   0.153034
  1.997713   0.163721
  1.998740   0.175540
  1.999766   0.188635
  2.000793   0.203173
  2.001820   0.219331
  2.002847   0.237307
  2.003874   0.257298
  2.004900   0.279505
  2.005927   0.304092
  2.006954   0.331180
  2.007981   0.360770
  2.009008   0.392717
  2.010034   0.426619
  2.011061   0.461790
  2.012088   0.497206
  2.013115   0.531535
  2.014141   0.563302
  2.015168   0.591179
  2.016195   0.614286
  2.017222   0.632506
  2.018249   0.646572
  2.019275   0.657924
  2.020302   0.668410
  2.021329   0.679915
  2.022356   0.694054
  2.023382   0.711945
  2.024409   0.734124
  2.025436   0.760470
  2.026463   0.790212
  2.027489   0.822010
  2.028516   0.854100
  2.029543   0.884544
  2.030570   0.911638
  2.031596   0.934213
  2.032623   0.951910
  2.033650   0.965159
  2.034677   0.974989
  2.035704   0.982635
  2.036731   0.989094
  2.037757   0.994699
  2.038784   0.998858
  2.039811   1.000000
  2.040838   0.995836
  2.041864   0.983902
  2.042891   0.962242
  2.043918   0.930047
  2.044945   0.887906
  2.045971   0.837707
  2.046998   0.782079
  2.048025   0.723873
  2.049052   0.665594
  2.050079   0.609218
  2.051105   0.556043
  2.052132   0.506841
  2.053159   0.461907
  2.054186   0.421265
  2.055212   0.384714
  2.056239   0.351976
  2.057266   0.322701
  2.058293   0.296531
  2.059320   0.273133
  2.060346   0.252191
  2.061373   0.233412
  2.062400   0.216544
  2.063426   0.201357
  2.064453   0.187649
  2.065480   0.175249
  2.066507   0.164007
  2.067534   0.153787
  2.068561   0.144474
  2.069587   0.135969
  2.070614   0.128182
  2.071641   0.121040
  2.072668   0.114471
  2.073694   0.108421
  2.074721   0.102834
   2.07575    0.09767
   2.07677    0.09288
   2.07780    0.08843
   2.07883    0.08430
   2.07985    0.08045
   2.08088    0.07686
   2.08191    0.07350
   2.08294    0.07036
   2.08396    0.06741
   2.08499    0.06465
   2.08602    0.06206
   2.08704    0.05962
   2.08807    0.05732
   2.08910    0.05515
   2.09012    0.05310
   2.09115    0.05117
   2.09218    0.04933
   2.09320    0.04760
   2.09423    0.04596
   2.09526    0.04440
   2.09628    0.04292
   2.09731    0.04151
   2.09834    0.04017
   2.09936    0.03890
   2.10039    0.03768
   2.10142    0.03652
   2.10244    0.03542
   2.10347    0.03436
   2.10450    0.03335
   2.10552    0.03239
   2.10655    0.03146
   2.10758    0.03058
   2.10860    0.02973
   2.10963    0.02892
   2.11066    0.02814
   2.11169    0.02739
   2.11271    0.02667
   2.11374    0.02598
   2.11477    0.02532
   2.11579    0.02468
   2.11682    0.02406
   2.11785    0.02347
   2.11887    0.02290
   2.11990    0.02235
   2.12093    0.02182
   2.12195    0.02131
   2.12298    0.02082
   2.12401    0.02034
   2.12503    0.01988
   2.12606    0.01944
   2.12709    0.01901
   2.12811    0.01859
   2.12914    0.01819
   2.13017    0.01780
   2.13119    0.01742
   2.13222    0.01706
   2.13325    0.01671
   2.13427    0.01636
   2.13530    0.01603
   2.13633    0.01571
   2.13735    0.01540
   2.13838    0.01509
   2.13941    0.01480
   2.14043    0.01451
   2.14146    0.01424
   2.14249    0.01397
   2.14352    0.01370
   2.14454    0.01345
   2.14557    0.01320
   2.14660    0.01296
   2.14762    0.01273
   2.14865    0.01250
   2.14968    0.01228
   2.15070    0.01206
   2.15173    0.01185
   2.15276    0.01165
   2.15378    0.01145
   2.15481    0.01125
   2.15584    0.01106
   2.15686    0.01088
   2.15789    0.01070
   2.15892    0.01052
   2.15994    0.01035
   2.16097    0.01018
   2.16200    0.01002
    2.1630     0.0099
    2.1641     0.0097
    2.1651     0.0096
    2.1661     0.0094
    2.1671     0.0093
    2.1682     0.0091
    2.1692     0.0090
    2.1702     0.0088
    2.1712     0.0087
    2.1723     0.0086
    2.1733     0.0085
    2.1743     0.0083
    2.1753     0.0082
    2.1764     0.0081
    2.1774     0.0080
    2.1784     0.0079
    2.1795     0.0078
    2.1805     0.0076
    2.1815     0.0075
    2.1825     0.0074
    2.1836     0.0073
    2.1846     0.0072
    2.1856     0.0071
    2.1866     0.0070
    2.1877     0.0069
    2.1887     0.0069
    2.1897     0.0068
    2.1907     0.0067
    2.1918     0.0066
    2.1928     0.0065
    2.1938     0.0064
    2.1949     0.0063
    2.1959     0.0063
    2.1969     0.0062
    2.1979     0.0061
    2.1990     0.0060
    2.2000     0.0060
    2.2010     0.0059
    2.2020     0.0058
    2.2031     0.0057
    2.2041     0.0057
    2.2051     0.0056
    2.2061     0.0055
    2.2072     0.0055
    2.2082     0.0054
    2.2092     0.0053
    2.2103     0.0053
    2.2113     0.0052
    2.2123     0.0052
    2.2133     0.0051
    2.2144     0.0050
    2.2154     0.0050
    2.2164     0.0049
    2.2174     0.0049
    2.2185     0.0048
    2.2195     0.0048
    2.2205     0.0047
    2.2216     0.0047
    2.2226     0.0046
    2.2236     0.0046
    2.2246     0.0045
    2.2257     0.0045
    2.2267     0.0044
    2.2277     0.0044
    2.2287     0.0043
    2.2298     0.0043
    2.2308     0.0042
    2.2318     0.0042
    2.2328     0.0041
    2.2339     0.0041
    2.2349     0.0041
    2.2359     0.0040
    2.2370     0.0040
    2.2380     0.0039
    2.2390     0.0039
    2.2400     0.0039
    2.2411     0.0038
    2.2421     0.0038
    2.2431     0.0038
    2.2441     0.0037
    2.2452     0.0037
    2.2462     0.0036
    2.2472     0.0036
    2.2482     0.0036
    2.2493     0.0035
    2.2503     0.0035
    2.2513     0.0035
    2.2524     0.0034
    2.2534     0.0034
    2.2544     0.0034
    2.2554     0.0033
    2.2565     0.0033
    2.2575     0.0033
    2.2585     0.0033
    2.2595     0.0032
    2.2606     0.0032
    2.2616     0.0032
    2.2626     0.0031
    2.2636     0.0031
    2.2647     0.0031
    2.2657     0.0031
    2.2667     0.0030
    2.2678     0.0030
    2.2688     0.0030
    2.2698     0.0030
    2.2708     0.0029
    2.2719     0.0029
    2.2729     0.0029
    2.2739     0.0029
    2.2749     0.0028
    2.2760     0.0028
    2.2770     0.0028
    2.2780     0.0028
    2.2790     0.0027
    2.2801     0.0027
    2.2811     0.0027
    2.2821     0.0027
    2.2832     0.0026
    2.2842     0.0026
    2.2852     0.0026
    2.2862     0.0026
    2.2873     0.0026
    2.2883     0.0025
    2.2893     0.0025
    2.2903     0.0025
    2.2914     0.0025
    2.2924     0.0025
    2.2934     0.0024
    2.2945     0.0024
    2.2955     0.0024
    2.2965     0.0024
    2.2975     0.0024
    2.2986     0.0023
    2.2996     0.0023
    2.3006     0.0023
  2.302     0.2292E-2
  2.303     0.2274E-2
  2.304     0.2257E-2
  2.305     0.2240E-2
  2.306     0.2223E-2
  2.307     0.2206E-2
  2.308     0.2190E-2
  2.309     0.2173E-2
  2.310     0.2157E-2
  2.311     0.2141E-2
  2.312     0.2126E-2
  2.313     0.2110E-2
  2.314     0.2095E-2
  2.315     0.2079E-2
  2.316     0.2064E-2
  2.317     0.2049E-2
  2.318     0.2035E-2
  2.319     0.2020E-2
  2.320     0.2006E-2
  2.321     0.1991E-2
  2.322     0.1977E-2
  2.323     0.1963E-2
  2.324     0.1949E-2
  2.325     0.1936E-2
  2.326     0.1922E-2
  2.327     0.1909E-2
  2.328     0.1895E-2
  2.329     0.1882E-2
  2.330     0.1869E-2
  2.331     0.1856E-2
  2.332     0.1844E-2
  2.333     0.1831E-2
  2.334     0.1818E-2
  2.336     0.1806E-2
  2.337     0.1794E-2
  2.338     0.1782E-2
  2.339     0.1770E-2
  2.340     0.1758E-2
  2.341     0.1746E-2
  2.342     0.1735E-2
  2.343     0.1723E-2
  2.344     0.1712E-2
  2.345     0.1700E-2
  2.346     0.1689E-2
  2.347     0.1678E-2
  2.348     0.1667E-2
  2.349     0.1656E-2
  2.350     0.1646E-2
  2.351     0.1635E-2
  2.352     0.1625E-2
  2.353     0.1614E-2
  2.354     0.1604E-2
  2.355     0.1594E-2
  2.356     0.1583E-2
  2.357     0.1573E-2
  2.358     0.1563E-2
  2.359     0.1554E-2
  2.360     0.1544E-2
  2.361     0.1534E-2
  2.362     0.1525E-2
  2.363     0.1515E-2
  2.364     0.1506E-2
  2.365     0.1496E-2
  2.366     0.1487E-2
  2.367     0.1478E-2
  2.368     0.1469E-2
  2.369     0.1460E-2
  2.370     0.1451E-2
  2.371     0.1442E-2
  2.372     0.1434E-2
  2.374     0.1425E-2
  2.375     0.1416E-2
  2.376     0.1408E-2
  2.377     0.1400E-2
  2.378     0.1391E-2
  2.379     0.1383E-2
  2.380     0.1375E-2
  2.381     0.1367E-2
  2.382     0.1359E-2
  2.383     0.1351E-2
  2.384     0.1343E-2
  2.385     0.1335E-2
  2.386     0.1327E-2
  2.387     0.1319E-2
  2.388     0.1312E-2
  2.389     0.1304E-2
  2.390     0.1297E-2
  2.391     0.1289E-2
  2.392     0.1282E-2
  2.393     0.1275E-2
  2.394     0.1267E-2
  2.395     0.1260E-2
  2.396     0.1253E-2
  2.397     0.1246E-2
  2.398     0.1239E-2
  2.399     0.1232E-2
  2.400     0.1225E-2
  2.401     0.1218E-2
  2.402     0.1211E-2
  2.403     0.1205E-2
  2.404     0.1198E-2
  2.405     0.1192E-2
  2.406     0.1185E-2
  2.407     0.1178E-2
  2.408     0.1172E-2
  2.409     0.1166E-2
  2.410     0.1159E-2
  2.412     0.1153E-2
  2.413     0.1147E-2
  2.414     0.1141E-2
  2.415     0.1134E-2
  2.416     0.1128E-2
  2.417     0.1122E-2
  2.418     0.1116E-2
  2.419     0.1110E-2
  2.420     0.1104E-2
  2.421     0.1099E-2
  2.422     0.1093E-2
  2.423     0.1087E-2
  2.424     0.1081E-2
  2.425     0.1076E-2
  2.426     0.1070E-2
  2.427     0.1064E-2
  2.428     0.1059E-2
  2.429     0.1053E-2
  2.430     0.1048E-2
  2.431     0.1043E-2
  2.432     0.1037E-2
  2.433     0.1032E-2
  2.434     0.1027E-2
  2.435     0.1021E-2
  2.436     0.1016E-2
  2.437     0.1011E-2
  2.438     0.1006E-2
  2.439     0.1001E-2
  2.440     0.9958E-3
  2.441     0.9908E-3
  2.442     0.9858E-3
  2.443     0.9809E-3
  2.444     0.9760E-3
  2.445     0.9711E-3
  2.446     0.9663E-3
  2.447     0.9615E-3
  2.448     0.9568E-3
  2.449     0.9521E-3
  2.451     0.9474E-3
  2.452     0.9427E-3
  2.453     0.9381E-3
  2.454     0.9335E-3
  2.455     0.9290E-3
  2.456     0.9245E-3
  2.457     0.9200E-3
  2.458     0.9155E-3
  2.459     0.9111E-3
  2.460     0.9068E-3
  2.461     0.9024E-3
  2.462     0.8981E-3
  2.463     0.8938E-3
  2.464     0.8895E-3
  2.465     0.8853E-3
  2.466     0.8811E-3
  2.467     0.8769E-3
  2.468     0.8728E-3
  2.469     0.8687E-3
  2.470     0.8646E-3
  2.471     0.8606E-3
  2.472     0.8565E-3
  2.473     0.8525E-3
  2.474     0.8486E-3
  2.475     0.8446E-3
  2.476     0.8407E-3
  2.477     0.8368E-3
  2.478     0.8330E-3
  2.479     0.8291E-3
  2.480     0.8253E-3
  2.481     0.8216E-3
  2.482     0.8178E-3
  2.483     0.8141E-3
  2.484     0.8104E-3
  2.485     0.8067E-3
  2.486     0.8030E-3
  2.487     0.7994E-3
  2.489     0.7958E-3
  2.490     0.7922E-3
  2.491     0.7887E-3
  2.492     0.7852E-3
  2.493     0.7816E-3
  2.494     0.7782E-3
  2.495     0.7747E-3
  2.496     0.7713E-3
  2.497     0.7679E-3
  2.498     0.7645E-3
  2.499     0.7611E-3
  2.500     0.7577E-3
  2.501     0.7544E-3
  2.502     0.7511E-3
  2.503     0.7478E-3
  2.504     0.7446E-3
  2.505     0.7413E-3
  2.506     0.7381E-3
  2.507     0.7349E-3
  2.508     0.7317E-3
  2.509     0.7286E-3
  2.510     0.7255E-3
  2.511     0.7223E-3
  2.512     0.7192E-3
  2.513     0.7162E-3
  2.514     0.7131E-3
  2.515     0.7101E-3
  2.516     0.7071E-3
  2.517     0.7041E-3
  2.518     0.7011E-3
  2.519     0.6981E-3
  2.520     0.6952E-3
  2.521     0.6923E-3
  2.522     0.6894E-3
  2.523     0.6865E-3
  2.524     0.6836E-3
  2.525     0.6808E-3
  2.527     0.6779E-3
  2.528     0.6751E-3
  2.529     0.6723E-3
  2.530     0.6695E-3
  2.531     0.6668E-3
  2.532     0.6640E-3
  2.533     0.6613E-3
  2.534     0.6586E-3
  2.535     0.6559E-3
  2.536     0.6532E-3
  2.537     0.6506E-3
  2.538     0.6479E-3
  2.539     0.6453E-3
  2.540     0.6427E-3
  2.541     0.6401E-3
  2.542     0.6375E-3
# 
# 05/03/2019 at 12:55 YPP @ login2.stampede2.tacc.utexas.edu [start]
# 05/03/2019 at 12:55                                        [end]
#  
# Timing   [Min/Max/Average]: 03s/03s/03s
#
# .-Input file : amp.in
# | excitons                     # [R] Excitons
# | amplitude                    # [R] Amplitude
# | BoseTemp=  0.02585     eV    # Bosonic Temperature
# | States= "1 - 10"             # Index of the BS state(s)
# | #DipWeight                   #  Weight the contribution to the exciton WFs with the dipoles
# | Degen_Step=0.1000E-4   eV    # Maximum energy separation of two degenerate states
