#                                                           
#  ____  ____     _       ____    ____  ______      ___     
# |_  _||_  _|   / \     |_   \  /   _||_   _ \   ."   `.   
#   \ \  / /    / _ \      |   \/   |    | |_) | /  .-.  \  
#    \ \/ /    / ___ \     | |\  /| |    |  __". | |   | |  
#    _|  |_  _/ /   \ \_  _| |_\/_| |_  _| |__) |\  `-"  /  
#   |______||____| |____||_____||_____||_______/  `.___."   
#                                                           
#                                                           
#                                                           
#              GPL Version 4.1.4 Revision 76                
#                        MPI Build                          
#                http://www.yambo-code.org                  
#
# BSK|Identifier              :5641
#    |Dimension               :11943
#    |Bands                   :121 - 172
#    |Exchange           [res]: yes
#    |Correlation        [res]: yes
#    |Kernel`s coupling       : no
#    |Exchange           [cpl]: no
#    |Correlation        [cpl]: no
#    |W interaction is bare   : no
#    |ALDA kernel in R-space  : no
#    |RL vectors    [exchange]:31669
#    |RL vectors [correlation]:387
#    |E/h energy range    [ev]:-1.000000 - -1.000000
#    |Coupling range     [o/o]: 100.0000 -  100.0000
#  W |Interaction is diagonal : no
#    |Matrix size             :2845
#    |Bands                   :1 - 570
#    |e/h energy range    [ev]:-1.000000 - -1.000000
#    |Poles              [o/o]: 100.0000
#    |RL vectors in the sum   :31669
#    |[r,Vnl] included        : yes
#    |Field direction         :-.8660E-5 0.5000E-5  0.000000
#    |Coulomb Cutoff          :box z
#    |xc-Kernel               :none
# RIM|RL components      [col]:0
#    |Random points      [col]:0
#
# Electron-Hole pairs that contributes to Excitonic State 4 more than 5%
#
#  E    [eV]  Amplitude
#  
  2.428     0.2184E-2
  2.430     0.2199E-2
  2.432     0.2215E-2
  2.434     0.2231E-2
  2.437     0.2247E-2
  2.439     0.2263E-2
  2.441     0.2279E-2
  2.444     0.2296E-2
  2.446     0.2312E-2
  2.448     0.2329E-2
  2.451     0.2346E-2
  2.453     0.2364E-2
  2.455     0.2381E-2
  2.458     0.2399E-2
  2.460     0.2417E-2
  2.462     0.2435E-2
  2.464     0.2453E-2
    2.4668     0.0025
    2.4691     0.0025
    2.4714     0.0025
    2.4737     0.0025
    2.4761     0.0025
    2.4784     0.0026
    2.4807     0.0026
    2.4830     0.0026
    2.4853     0.0026
    2.4876     0.0026
    2.4899     0.0027
    2.4922     0.0027
    2.4945     0.0027
    2.4969     0.0027
    2.4992     0.0028
    2.5015     0.0028
    2.5038     0.0028
    2.5061     0.0028
    2.5084     0.0028
    2.5107     0.0029
    2.5130     0.0029
    2.5153     0.0029
    2.5177     0.0029
    2.5200     0.0030
    2.5223     0.0030
    2.5246     0.0030
    2.5269     0.0030
    2.5292     0.0031
    2.5315     0.0031
    2.5338     0.0031
    2.5361     0.0031
    2.5385     0.0032
    2.5408     0.0032
    2.5431     0.0032
    2.5454     0.0033
    2.5477     0.0033
    2.5500     0.0033
    2.5523     0.0033
    2.5546     0.0034
    2.5569     0.0034
    2.5593     0.0034
    2.5616     0.0035
    2.5639     0.0035
    2.5662     0.0035
    2.5685     0.0036
    2.5708     0.0036
    2.5731     0.0036
    2.5754     0.0037
    2.5777     0.0037
    2.5801     0.0037
    2.5824     0.0038
    2.5847     0.0038
    2.5870     0.0038
    2.5893     0.0039
    2.5916     0.0039
    2.5939     0.0039
    2.5962     0.0040
    2.5986     0.0040
    2.6009     0.0041
    2.6032     0.0041
    2.6055     0.0041
    2.6078     0.0042
    2.6101     0.0042
    2.6124     0.0043
    2.6147     0.0043
    2.6170     0.0044
    2.6194     0.0044
    2.6217     0.0045
    2.6240     0.0045
    2.6263     0.0045
    2.6286     0.0046
    2.6309     0.0046
    2.6332     0.0047
    2.6355     0.0047
    2.6378     0.0048
    2.6402     0.0048
    2.6425     0.0049
    2.6448     0.0050
    2.6471     0.0050
    2.6494     0.0051
    2.6517     0.0051
    2.6540     0.0052
    2.6563     0.0052
    2.6586     0.0053
    2.6610     0.0054
    2.6633     0.0054
    2.6656     0.0055
    2.6679     0.0055
    2.6702     0.0056
    2.6725     0.0057
    2.6748     0.0057
    2.6771     0.0058
    2.6794     0.0059
    2.6818     0.0060
    2.6841     0.0060
    2.6864     0.0061
    2.6887     0.0062
    2.6910     0.0062
    2.6933     0.0063
    2.6956     0.0064
    2.6979     0.0065
    2.7002     0.0066
    2.7026     0.0067
    2.7049     0.0067
    2.7072     0.0068
    2.7095     0.0069
    2.7118     0.0070
    2.7141     0.0071
    2.7164     0.0072
    2.7187     0.0073
    2.7210     0.0074
    2.7234     0.0075
    2.7257     0.0076
    2.7280     0.0077
    2.7303     0.0078
    2.7326     0.0079
    2.7349     0.0081
    2.7372     0.0082
    2.7395     0.0083
    2.7418     0.0084
    2.7442     0.0085
    2.7465     0.0087
    2.7488     0.0088
    2.7511     0.0089
    2.7534     0.0091
    2.7557     0.0092
    2.7580     0.0093
    2.7603     0.0095
    2.7626     0.0096
    2.7650     0.0098
    2.7673     0.0100
   2.76958    0.01012
   2.77189    0.01029
   2.77420    0.01046
   2.77652    0.01064
   2.77883    0.01082
   2.78114    0.01101
   2.78345    0.01120
   2.78576    0.01140
   2.78807    0.01160
   2.79038    0.01181
   2.79269    0.01202
   2.79501    0.01224
   2.79732    0.01247
   2.79963    0.01270
   2.80194    0.01295
   2.80425    0.01319
   2.80656    0.01345
   2.80887    0.01372
   2.81118    0.01399
   2.81350    0.01427
   2.81581    0.01456
   2.81812    0.01486
   2.82043    0.01518
   2.82274    0.01550
   2.82505    0.01583
   2.82736    0.01618
   2.82967    0.01654
   2.83198    0.01691
   2.83430    0.01729
   2.83661    0.01769
   2.83892    0.01811
   2.84123    0.01854
   2.84354    0.01899
   2.84585    0.01946
   2.84816    0.01995
   2.85047    0.02046
   2.85279    0.02100
   2.85510    0.02155
   2.85741    0.02214
   2.85972    0.02275
   2.86203    0.02339
   2.86434    0.02406
   2.86665    0.02477
   2.86896    0.02551
   2.87128    0.02629
   2.87359    0.02712
   2.87590    0.02799
   2.87821    0.02892
   2.88052    0.02990
   2.88283    0.03095
   2.88514    0.03206
   2.88745    0.03324
   2.88977    0.03451
   2.89208    0.03586
   2.89439    0.03732
   2.89670    0.03889
   2.89901    0.04057
   2.90132    0.04239
   2.90363    0.04435
   2.90594    0.04647
   2.90826    0.04876
   2.91057    0.05122
   2.91288    0.05385
   2.91519    0.05667
   2.91750    0.05965
   2.91981    0.06278
   2.92212    0.06604
   2.92443    0.06941
   2.92675    0.07288
   2.92906    0.07647
   2.93137    0.08022
   2.93368    0.08418
   2.93599    0.08843
   2.93830    0.09304
   2.94061    0.09807
  2.942924   0.103554
  2.945235   0.109505
  2.947546   0.115897
  2.949858   0.122674
  2.952169   0.129759
  2.954480   0.137073
  2.956791   0.144540
  2.959103   0.152106
  2.961414   0.159727
  2.963725   0.167352
  2.966036   0.174905
  2.968347   0.182268
  2.970659   0.189288
  2.972970   0.195800
  2.975281   0.201667
  2.977592   0.206829
  2.979903   0.211337
  2.982215   0.215357
  2.984526   0.219133
  2.986837   0.222916
  2.989149   0.226889
  2.991460   0.231109
  2.993771   0.235484
  2.996082   0.239785
  2.998393   0.243718
  3.000705   0.247008
  3.003016   0.249505
  3.005327   0.251246
  3.007638   0.252469
  3.009949   0.253568
  3.012261   0.255013
  3.014572   0.257278
  3.016883   0.260791
  3.019195   0.265910
  3.021506   0.272930
  3.023817   0.282099
  3.026128   0.293635
  3.028439   0.307741
  3.030751   0.324620
  3.033062   0.344474
  3.035373   0.367499
  3.037684   0.393874
  3.039995   0.423740
  3.042307   0.457175
  3.044618   0.494172
  3.046929   0.534624
  3.049240   0.578315
  3.051552   0.624921
  3.053863   0.673993
  3.056174   0.724893
  3.058485   0.776658
  3.060796   0.827872
  3.063108   0.876533
  3.065419   0.920154
  3.067730   0.956068
  3.070041   0.981989
  3.072353   0.996607
  3.074664   1.000000
  3.076975   0.993627
  3.079286   0.979901
  3.081598   0.961495
  3.083909   0.940663
  3.086220   0.918757
  3.088531   0.896053
  3.090842   0.871886
  3.093154   0.845018
  3.095465   0.814180
  3.097776   0.778574
  3.100087   0.738200
  3.102399   0.693891
  3.104710   0.647076
  3.107021   0.599419
  3.109332   0.552484
  3.111644   0.507518
  3.113955   0.465376
  3.116266   0.426543
  3.118577   0.391208
  3.120888   0.359348
  3.123200   0.330808
  3.125511   0.305358
  3.127822   0.282739
  3.130133   0.262681
  3.132445   0.244933
  3.134756   0.229261
  3.137067   0.215458
  3.139378   0.203341
  3.141690   0.192752
  3.144001   0.183554
  3.146312   0.175629
  3.148623   0.168869
  3.150934   0.163178
  3.153246   0.158453
  3.155557   0.154587
  3.157868   0.151451
  3.160179   0.148892
  3.162491   0.146731
  3.164802   0.144772
  3.167113   0.142821
  3.169424   0.140720
  3.171736   0.138374
  3.174047   0.135771
  3.176358   0.132969
  3.178669   0.130073
  3.180980   0.127190
  3.183292   0.124395
  3.185603   0.121702
  3.187914   0.119060
  3.190225   0.116369
  3.192537   0.113504
  3.194848   0.110354
  3.197159   0.106861
  3.199470   0.103037
   3.20178    0.09896
   3.20409    0.09475
   3.20640    0.09055
   3.20872    0.08647
   3.21103    0.08263
   3.21334    0.07910
   3.21565    0.07590
   3.21796    0.07308
   3.22027    0.07062
   3.22258    0.06853
   3.22489    0.06681
   3.22721    0.06544
   3.22952    0.06442
   3.23183    0.06375
   3.23414    0.06340
   3.23645    0.06339
   3.23876    0.06370
   3.24107    0.06430
   3.24338    0.06516
   3.24569    0.06622
   3.24801    0.06740
   3.25032    0.06859
   3.25263    0.06964
   3.25494    0.07040
   3.25725    0.07073
   3.25956    0.07053
   3.26187    0.06978
   3.26418    0.06853
   3.26650    0.06689
   3.26881    0.06500
   3.27112    0.06302
   3.27343    0.06109
   3.27574    0.05932
   3.27805    0.05779
   3.28036    0.05654
   3.28267    0.05562
   3.28499    0.05503
   3.28730    0.05479
   3.28961    0.05491
   3.29192    0.05537
   3.29423    0.05617
   3.29654    0.05729
   3.29885    0.05868
   3.30116    0.06028
   3.30348    0.06200
   3.30579    0.06372
   3.30810    0.06531
   3.31041    0.06661
   3.31272    0.06752
   3.31503    0.06797
   3.31734    0.06797
   3.31965    0.06761
   3.32197    0.06701
   3.32428    0.06635
   3.32659    0.06576
   3.32890    0.06537
   3.33121    0.06526
   3.33352    0.06548
   3.33583    0.06599
   3.33814    0.06675
   3.34046    0.06763
   3.34277    0.06849
   3.34508    0.06914
   3.34739    0.06940
   3.34970    0.06912
   3.35201    0.06821
   3.35432    0.06669
   3.35663    0.06465
   3.35894    0.06222
   3.36126    0.05960
   3.36357    0.05692
   3.36588    0.05433
   3.36819    0.05192
   3.37050    0.04974
   3.37281    0.04784
   3.37512    0.04623
   3.37743    0.04490
   3.37975    0.04386
   3.38206    0.04309
   3.38437    0.04259
   3.38668    0.04235
   3.38899    0.04238
   3.39130    0.04266
   3.39361    0.04320
   3.39592    0.04402
   3.39824    0.04512
   3.40055    0.04652
   3.40286    0.04825
   3.40517    0.05033
   3.40748    0.05280
   3.40979    0.05568
   3.41210    0.05900
   3.41441    0.06281
   3.41673    0.06713
   3.41904    0.07195
   3.42135    0.07726
   3.42366    0.08299
   3.42597    0.08901
   3.42828    0.09513
  3.430593   0.101067
  3.432904   0.106500
  3.435215   0.111086
  3.437527   0.114537
  3.439838   0.116680
  3.442149   0.117494
  3.444460   0.117107
  3.446772   0.115745
  3.449083   0.113667
  3.451394   0.111111
  3.453705   0.108270
  3.456017   0.105301
  3.458328   0.102337
   3.46064    0.09950
   3.46295    0.09691
   3.46526    0.09465
   3.46757    0.09276
   3.46988    0.09121
   3.47220    0.08990
   3.47451    0.08867
   3.47682    0.08732
   3.47913    0.08563
   3.48144    0.08344
   3.48375    0.08064
   3.48606    0.07727
   3.48837    0.07342
   3.49069    0.06927
   3.49300    0.06499
   3.49531    0.06076
   3.49762    0.05670
   3.49993    0.05291
   3.50224    0.04945
   3.50455    0.04632
   3.50686    0.04355
   3.50917    0.04111
   3.51149    0.03899
   3.51380    0.03717
   3.51611    0.03562
   3.51842    0.03434
   3.52073    0.03329
   3.52304    0.03245
   3.52535    0.03180
   3.52766    0.03130
   3.52998    0.03091
   3.53229    0.03059
   3.53460    0.03028
   3.53691    0.02992
   3.53922    0.02946
   3.54153    0.02887
   3.54384    0.02813
   3.54615    0.02725
   3.54847    0.02627
   3.55078    0.02523
   3.55309    0.02417
   3.55540    0.02313
   3.55771    0.02215
   3.56002    0.02123
   3.56233    0.02040
   3.56464    0.01965
   3.56696    0.01898
   3.56927    0.01840
   3.57158    0.01790
   3.57389    0.01748
   3.57620    0.01713
   3.57851    0.01685
   3.58082    0.01663
   3.58313    0.01649
   3.58545    0.01641
   3.58776    0.01639
   3.59007    0.01644
   3.59238    0.01657
   3.59469    0.01676
   3.59700    0.01702
   3.59931    0.01736
   3.60162    0.01777
   3.60394    0.01825
   3.60625    0.01880
   3.60856    0.01940
   3.61087    0.02004
   3.61318    0.02069
   3.61549    0.02133
   3.61780    0.02194
   3.62011    0.02251
   3.62242    0.02303
   3.62474    0.02350
   3.62705    0.02396
   3.62936    0.02443
   3.63167    0.02491
   3.63398    0.02543
   3.63629    0.02596
   3.63860    0.02649
   3.64091    0.02696
   3.64323    0.02734
   3.64554    0.02761
   3.64785    0.02773
   3.65016    0.02773
   3.65247    0.02763
   3.65478    0.02750
   3.65709    0.02738
   3.65940    0.02731
   3.66172    0.02734
   3.66403    0.02747
   3.66634    0.02770
   3.66865    0.02802
   3.67096    0.02840
   3.67327    0.02882
   3.67558    0.02925
   3.67789    0.02969
   3.68021    0.03015
   3.68252    0.03067
   3.68483    0.03129
   3.68714    0.03205
   3.68945    0.03301
   3.69176    0.03419
   3.69407    0.03562
   3.69638    0.03728
   3.69870    0.03916
   3.70101    0.04119
   3.70332    0.04326
   3.70563    0.04525
   3.70794    0.04697
   3.71025    0.04824
   3.71256    0.04891
   3.71487    0.04888
   3.71719    0.04812
   3.71950    0.04671
   3.72181    0.04480
   3.72412    0.04255
   3.72643    0.04014
   3.72874    0.03772
   3.73105    0.03540
   3.73336    0.03326
   3.73568    0.03132
   3.73799    0.02959
   3.74030    0.02806
   3.74261    0.02670
   3.74492    0.02546
   3.74723    0.02431
   3.74954    0.02321
   3.75185    0.02211
   3.75416    0.02102
   3.75648    0.01993
   3.75879    0.01885
   3.76110    0.01780
   3.76341    0.01680
   3.76572    0.01586
   3.76803    0.01498
   3.77034    0.01418
   3.77265    0.01345
   3.77497    0.01280
   3.77728    0.01221
   3.77959    0.01168
   3.78190    0.01121
   3.78421    0.01079
   3.78652    0.01043
   3.78883    0.01011
    3.7911     0.0098
    3.7935     0.0096
    3.7958     0.0094
    3.7981     0.0092
    3.8004     0.0091
    3.8027     0.0090
    3.8050     0.0089
    3.8073     0.0088
    3.8096     0.0088
    3.8119     0.0089
    3.8143     0.0089
    3.8166     0.0090
    3.8189     0.0092
    3.8212     0.0094
    3.8235     0.0096
    3.8258     0.0099
   3.82812    0.01022
   3.83044    0.01062
   3.83275    0.01108
   3.83506    0.01159
   3.83737    0.01215
   3.83968    0.01275
   3.84199    0.01337
   3.84430    0.01397
   3.84661    0.01451
   3.84893    0.01494
   3.85124    0.01522
   3.85355    0.01531
   3.85586    0.01520
   3.85817    0.01490
   3.86048    0.01444
   3.86279    0.01386
   3.86510    0.01321
   3.86742    0.01253
   3.86973    0.01186
   3.87204    0.01123
   3.87435    0.01064
   3.87666    0.01011
    3.8790     0.0096
    3.8813     0.0092
    3.8836     0.0089
    3.8859     0.0085
    3.8882     0.0083
    3.8905     0.0081
    3.8928     0.0079
    3.8951     0.0078
    3.8975     0.0077
    3.8998     0.0076
    3.9021     0.0076
    3.9044     0.0076
    3.9067     0.0076
    3.9090     0.0077
    3.9113     0.0077
    3.9136     0.0079
    3.9160     0.0080
    3.9183     0.0083
    3.9206     0.0085
    3.9229     0.0088
    3.9252     0.0091
    3.9275     0.0096
   3.92982    0.01002
   3.93213    0.01056
   3.93444    0.01118
   3.93675    0.01189
   3.93906    0.01269
   3.94137    0.01360
   3.94369    0.01461
   3.94600    0.01574
   3.94831    0.01696
   3.95062    0.01826
   3.95293    0.01961
   3.95524    0.02095
   3.95755    0.02221
   3.95986    0.02329
   3.96218    0.02410
   3.96449    0.02457
   3.96680    0.02463
   3.96911    0.02428
   3.97142    0.02358
   3.97373    0.02259
   3.97604    0.02141
   3.97835    0.02014
   3.98067    0.01885
   3.98298    0.01760
   3.98529    0.01643
   3.98760    0.01537
   3.98991    0.01442
   3.99222    0.01359
   3.99453    0.01287
   3.99684    0.01227
   3.99916    0.01176
   4.00147    0.01136
   4.00378    0.01104
   4.00609    0.01081
   4.00840    0.01066
   4.01071    0.01059
   4.01302    0.01061
   4.01533    0.01070
   4.01764    0.01087
   4.01996    0.01113
   4.02227    0.01148
   4.02458    0.01193
   4.02689    0.01247
   4.02920    0.01312
   4.03151    0.01388
   4.03382    0.01475
   4.03613    0.01572
   4.03845    0.01677
   4.04076    0.01788
   4.04307    0.01899
   4.04538    0.02005
   4.04769    0.02098
   4.05000    0.02167
   4.05231    0.02207
   4.05463    0.02210
   4.05694    0.02177
   4.05925    0.02109
   4.06156    0.02014
   4.06387    0.01899
   4.06618    0.01774
   4.06849    0.01645
   4.07080    0.01518
   4.07311    0.01398
   4.07543    0.01286
   4.07774    0.01183
   4.08005    0.01090
   4.08236    0.01007
    4.0847     0.0093
    4.0870     0.0087
    4.0893     0.0081
    4.0916     0.0075
    4.0939     0.0071
    4.0962     0.0066
    4.0985     0.0063
    4.1008     0.0059
    4.1032     0.0056
    4.1055     0.0053
    4.1078     0.0051
    4.1101     0.0049
    4.1124     0.0047
    4.1147     0.0045
    4.1170     0.0043
    4.1193     0.0041
  4.122     0.4000E-2
  4.124     0.3870E-2
  4.126     0.3752E-2
  4.129     0.3643E-2
  4.131     0.3543E-2
  4.133     0.3452E-2
  4.136     0.3368E-2
  4.138     0.3291E-2
  4.140     0.3221E-2
  4.142     0.3157E-2
  4.145     0.3099E-2
  4.147     0.3046E-2
  4.149     0.2999E-2
  4.152     0.2957E-2
  4.154     0.2919E-2
  4.156     0.2886E-2
  4.159     0.2859E-2
  4.161     0.2835E-2
  4.163     0.2817E-2
  4.166     0.2803E-2
  4.168     0.2794E-2
  4.170     0.2791E-2
  4.172     0.2792E-2
  4.175     0.2800E-2
  4.177     0.2813E-2
  4.179     0.2833E-2
  4.182     0.2859E-2
  4.184     0.2893E-2
  4.186     0.2936E-2
  4.189     0.2987E-2
  4.191     0.3049E-2
  4.193     0.3122E-2
  4.196     0.3208E-2
  4.198     0.3309E-2
  4.200     0.3425E-2
  4.203     0.3560E-2
  4.205     0.3716E-2
  4.207     0.3894E-2
  4.209     0.4099E-2
    4.2118     0.0043
    4.2141     0.0046
    4.2164     0.0049
    4.2187     0.0052
    4.2210     0.0056
    4.2233     0.0060
    4.2257     0.0064
    4.2280     0.0067
    4.2303     0.0071
    4.2326     0.0074
    4.2349     0.0077
    4.2372     0.0078
    4.2395     0.0078
    4.2418     0.0077
    4.2441     0.0075
    4.2465     0.0071
    4.2488     0.0067
    4.2511     0.0063
    4.2534     0.0059
    4.2557     0.0055
    4.2580     0.0051
    4.2603     0.0047
    4.2626     0.0044
  4.265     0.4070E-2
  4.267     0.3795E-2
  4.270     0.3549E-2
  4.272     0.3330E-2
  4.274     0.3133E-2
  4.277     0.2958E-2
  4.279     0.2801E-2
  4.281     0.2660E-2
  4.283     0.2534E-2
  4.286     0.2419E-2
  4.288     0.2316E-2
  4.290     0.2223E-2
  4.293     0.2138E-2
  4.295     0.2061E-2
  4.297     0.1990E-2
  4.300     0.1925E-2
  4.302     0.1865E-2
  4.304     0.1810E-2
  4.307     0.1759E-2
  4.309     0.1712E-2
  4.311     0.1669E-2
  4.313     0.1628E-2
  4.316     0.1590E-2
  4.318     0.1554E-2
  4.320     0.1521E-2
  4.323     0.1490E-2
  4.325     0.1460E-2
  4.327     0.1432E-2
  4.330     0.1406E-2
  4.332     0.1381E-2
  4.334     0.1358E-2
  4.337     0.1335E-2
  4.339     0.1314E-2
  4.341     0.1294E-2
  4.344     0.1275E-2
  4.346     0.1256E-2
  4.348     0.1238E-2
  4.350     0.1222E-2
  4.353     0.1205E-2
  4.355     0.1190E-2
  4.357     0.1175E-2
  4.360     0.1160E-2
  4.362     0.1147E-2
  4.364     0.1133E-2
  4.367     0.1120E-2
  4.369     0.1108E-2
  4.371     0.1096E-2
  4.374     0.1084E-2
  4.376     0.1073E-2
  4.378     0.1062E-2
  4.381     0.1051E-2
  4.383     0.1041E-2
  4.385     0.1031E-2
  4.387     0.1021E-2
  4.390     0.1012E-2
  4.392     0.1003E-2
  4.394     0.9936E-3
  4.397     0.9849E-3
  4.399     0.9763E-3
  4.401     0.9680E-3
  4.404     0.9599E-3
  4.406     0.9520E-3
  4.408     0.9443E-3
  4.411     0.9367E-3
  4.413     0.9293E-3
  4.415     0.9221E-3
  4.417     0.9150E-3
  4.420     0.9080E-3
  4.422     0.9012E-3
  4.424     0.8946E-3
  4.427     0.8880E-3
  4.429     0.8816E-3
  4.431     0.8754E-3
  4.434     0.8692E-3
  4.436     0.8631E-3
  4.438     0.8572E-3
  4.441     0.8514E-3
  4.443     0.8456E-3
  4.445     0.8400E-3
  4.448     0.8345E-3
  4.450     0.8290E-3
  4.452     0.8237E-3
  4.454     0.8184E-3
  4.457     0.8132E-3
  4.459     0.8081E-3
  4.461     0.8031E-3
  4.464     0.7981E-3
  4.466     0.7932E-3
  4.468     0.7884E-3
  4.471     0.7837E-3
  4.473     0.7790E-3
  4.475     0.7744E-3
  4.478     0.7699E-3
  4.480     0.7654E-3
  4.482     0.7610E-3
  4.485     0.7566E-3
  4.487     0.7523E-3
  4.489     0.7481E-3
  4.491     0.7439E-3
  4.494     0.7398E-3
  4.496     0.7357E-3
  4.498     0.7317E-3
  4.501     0.7277E-3
  4.503     0.7237E-3
  4.505     0.7199E-3
  4.508     0.7160E-3
  4.510     0.7122E-3
  4.512     0.7085E-3
  4.515     0.7048E-3
  4.517     0.7011E-3
  4.519     0.6975E-3
  4.521     0.6939E-3
  4.524     0.6904E-3
  4.526     0.6869E-3
  4.528     0.6834E-3
  4.531     0.6800E-3
  4.533     0.6766E-3
  4.535     0.6732E-3
  4.538     0.6699E-3
  4.540     0.6666E-3
  4.542     0.6634E-3
  4.545     0.6602E-3
  4.547     0.6570E-3
  4.549     0.6538E-3
  4.552     0.6507E-3
  4.554     0.6476E-3
  4.556     0.6446E-3
  4.558     0.6415E-3
  4.561     0.6385E-3
  4.563     0.6356E-3
  4.565     0.6326E-3
  4.568     0.6297E-3
  4.570     0.6268E-3
  4.572     0.6240E-3
  4.575     0.6211E-3
  4.577     0.6183E-3
  4.579     0.6155E-3
  4.582     0.6128E-3
  4.584     0.6100E-3
  4.586     0.6073E-3
  4.589     0.6046E-3
  4.591     0.6020E-3
  4.593     0.5993E-3
  4.595     0.5967E-3
  4.598     0.5941E-3
  4.600     0.5915E-3
  4.602     0.5890E-3
  4.605     0.5865E-3
  4.607     0.5839E-3
  4.609     0.5815E-3
  4.612     0.5790E-3
  4.614     0.5765E-3
  4.616     0.5741E-3
  4.619     0.5717E-3
  4.621     0.5693E-3
  4.623     0.5669E-3
  4.625     0.5646E-3
  4.628     0.5623E-3
  4.630     0.5599E-3
  4.632     0.5576E-3
  4.635     0.5554E-3
  4.637     0.5531E-3
  4.639     0.5509E-3
  4.642     0.5486E-3
  4.644     0.5464E-3
  4.646     0.5442E-3
  4.649     0.5420E-3
  4.651     0.5399E-3
  4.653     0.5377E-3
  4.656     0.5356E-3
  4.658     0.5335E-3
  4.660     0.5314E-3
  4.662     0.5293E-3
  4.665     0.5272E-3
  4.667     0.5252E-3
  4.669     0.5231E-3
  4.672     0.5211E-3
  4.674     0.5191E-3
  4.676     0.5171E-3
  4.679     0.5151E-3
  4.681     0.5132E-3
  4.683     0.5112E-3
  4.686     0.5093E-3
  4.688     0.5073E-3
  4.690     0.5054E-3
  4.693     0.5035E-3
  4.695     0.5016E-3
  4.697     0.4997E-3
  4.699     0.4979E-3
  4.702     0.4960E-3
  4.704     0.4942E-3
  4.706     0.4924E-3
  4.709     0.4905E-3
  4.711     0.4887E-3
  4.713     0.4870E-3
  4.716     0.4852E-3
  4.718     0.4834E-3
  4.720     0.4816E-3
  4.723     0.4799E-3
  4.725     0.4782E-3
  4.727     0.4764E-3
  4.730     0.4747E-3
  4.732     0.4730E-3
  4.734     0.4713E-3
  4.736     0.4697E-3
# 
# 05/03/2019 at 12:55 YPP @ login2.stampede2.tacc.utexas.edu [start]
# 05/03/2019 at 12:55                                        [end]
#  
# Timing   [Min/Max/Average]: 03s/03s/03s
#
# .-Input file : amp.in
# | excitons                     # [R] Excitons
# | amplitude                    # [R] Amplitude
# | BoseTemp=  0.02585     eV    # Bosonic Temperature
# | States= "1 - 10"             # Index of the BS state(s)
# | #DipWeight                   #  Weight the contribution to the exciton WFs with the dipoles
# | Degen_Step=0.1000E-4   eV    # Maximum energy separation of two degenerate states
