#                                                           
#  __  __   ________   ___ __ __    _______   ______        
# /_/\/_/\ /_______/\ /__//_//_/\ /_______/\ /_____/\       
# \ \ \ \ \\::: _  \ \\::\| \| \ \\::: _  \ \\:::_ \ \      
#  \:\_\ \ \\::(_)  \ \\:.      \ \\::(_)  \/_\:\ \ \ \     
#   \::::_\/ \:: __  \ \\:.\-/\  \ \\::  _  \ \\:\ \ \ \    
#     \::\ \  \:.\ \  \ \\. \  \  \ \\::(_)  \ \\:\_\ \ \   
#      \__\/   \__\/\__\/ \__\/ \__\/ \_______\/ \_____\/   
#                                                           
#                                                           
#              GPL Version 4.1.4 Revision 76                
#                        MPI Build                          
#                http://www.yambo-code.org                  
#
# BSK|Identifier              :2467
#    |Dimension               :14580
#    |Bands                   :100 - 180
#    |Exchange           [res]: yes
#    |Correlation        [res]: yes
#    |Kernel`s coupling       : no
#    |Exchange           [cpl]: no
#    |Correlation        [cpl]: no
#    |W interaction is bare   : no
#    |ALDA kernel in R-space  : no
#    |RL vectors    [exchange]:27983
#    |RL vectors [correlation]:4011
#    |E/h energy range    [ev]:-1.000000 - -1.000000
#    |Coupling range     [o/o]: 100.0000 -  100.0000
#  W |Interaction is diagonal : no
#    |Matrix size             :8049
#    |Bands                   :1 - 1800
#    |e/h energy range    [ev]:-1.000000 - -1.000000
#    |Poles              [o/o]: 100.0000
#    |RL vectors in the sum   :27983
#    |[r,Vnl] included        : yes
#    |Field direction         :0.1000E-4  0.000000  0.000000
#    |Coulomb Cutoff          :box z
#    |xc-Kernel               :none
# RIM|RL components      [col]:0
#    |Random points      [col]:0
#
# Electron-Hole pairs that contributes to Excitonic State 9 more than 5%
#
#  E    [eV]  Amplitude
#  
  3.895     0.1699E-2
  3.898     0.1711E-2
  3.901     0.1724E-2
  3.905     0.1737E-2
  3.908     0.1750E-2
  3.912     0.1763E-2
  3.915     0.1776E-2
  3.919     0.1789E-2
  3.922     0.1803E-2
  3.926     0.1817E-2
  3.929     0.1830E-2
  3.933     0.1845E-2
  3.936     0.1859E-2
  3.940     0.1873E-2
  3.943     0.1888E-2
  3.947     0.1903E-2
  3.950     0.1918E-2
  3.954     0.1934E-2
  3.957     0.1949E-2
  3.960     0.1965E-2
  3.964     0.1981E-2
  3.967     0.1997E-2
  3.971     0.2014E-2
  3.974     0.2030E-2
  3.978     0.2047E-2
  3.981     0.2065E-2
  3.985     0.2082E-2
  3.988     0.2100E-2
  3.992     0.2118E-2
  3.995     0.2136E-2
  3.999     0.2155E-2
  4.002     0.2174E-2
  4.006     0.2193E-2
  4.009     0.2213E-2
  4.013     0.2233E-2
  4.016     0.2253E-2
  4.019     0.2273E-2
  4.023     0.2294E-2
  4.026     0.2315E-2
  4.030     0.2337E-2
  4.033     0.2359E-2
  4.037     0.2382E-2
  4.040     0.2404E-2
  4.044     0.2428E-2
  4.047     0.2451E-2
  4.051     0.2475E-2
  4.054     0.2500E-2
  4.058     0.2525E-2
  4.061     0.2551E-2
  4.065     0.2577E-2
  4.068     0.2603E-2
  4.071     0.2630E-2
  4.075     0.2658E-2
  4.078     0.2686E-2
  4.082     0.2715E-2
  4.085     0.2744E-2
  4.089     0.2774E-2
  4.092     0.2805E-2
  4.096     0.2837E-2
  4.099     0.2869E-2
  4.103     0.2902E-2
  4.106     0.2935E-2
  4.110     0.2970E-2
  4.113     0.3005E-2
  4.117     0.3041E-2
  4.120     0.3078E-2
  4.124     0.3116E-2
  4.127     0.3155E-2
  4.130     0.3195E-2
  4.134     0.3236E-2
  4.137     0.3279E-2
  4.141     0.3322E-2
  4.144     0.3366E-2
  4.148     0.3412E-2
  4.151     0.3460E-2
  4.155     0.3508E-2
  4.158     0.3558E-2
  4.162     0.3610E-2
  4.165     0.3663E-2
  4.169     0.3718E-2
  4.172     0.3775E-2
  4.176     0.3834E-2
  4.179     0.3894E-2
  4.183     0.3957E-2
  4.186     0.4022E-2
  4.189     0.4090E-2
  4.193     0.4160E-2
    4.1964     0.0042
    4.1999     0.0043
    4.2033     0.0044
    4.2068     0.0045
    4.2103     0.0046
    4.2137     0.0046
    4.2172     0.0047
    4.2207     0.0048
    4.2242     0.0049
    4.2276     0.0050
    4.2311     0.0052
    4.2346     0.0053
    4.2380     0.0054
    4.2415     0.0055
    4.2450     0.0057
    4.2484     0.0058
    4.2519     0.0060
    4.2554     0.0061
    4.2589     0.0063
    4.2623     0.0065
    4.2658     0.0067
    4.2693     0.0069
    4.2727     0.0071
    4.2762     0.0073
    4.2797     0.0076
    4.2831     0.0079
    4.2866     0.0081
    4.2901     0.0085
    4.2935     0.0088
    4.2970     0.0092
    4.3005     0.0096
   4.30396    0.01002
   4.30743    0.01050
   4.31089    0.01102
   4.31436    0.01160
   4.31783    0.01224
   4.32130    0.01294
   4.32477    0.01372
   4.32824    0.01459
   4.33171    0.01555
   4.33518    0.01662
   4.33865    0.01782
   4.34212    0.01917
   4.34559    0.02068
   4.34906    0.02237
   4.35253    0.02427
   4.35600    0.02639
   4.35947    0.02875
   4.36294    0.03135
   4.36641    0.03419
   4.36988    0.03724
   4.37335    0.04044
   4.37681    0.04368
   4.38028    0.04681
   4.38375    0.04964
   4.38722    0.05194
   4.39069    0.05351
   4.39416    0.05417
   4.39763    0.05386
   4.40110    0.05263
   4.40457    0.05061
   4.40804    0.04802
   4.41151    0.04508
   4.41498    0.04199
   4.41845    0.03891
   4.42192    0.03596
   4.42539    0.03321
   4.42886    0.03069
   4.43233    0.02843
   4.43580    0.02640
   4.43927    0.02460
   4.44274    0.02302
   4.44621    0.02162
   4.44967    0.02040
   4.45314    0.01932
   4.45661    0.01838
   4.46008    0.01756
   4.46355    0.01685
   4.46702    0.01622
   4.47049    0.01568
   4.47396    0.01521
   4.47743    0.01481
   4.48090    0.01447
   4.48437    0.01419
   4.48784    0.01395
   4.49131    0.01376
   4.49478    0.01361
   4.49825    0.01350
   4.50172    0.01343
   4.50519    0.01339
   4.50866    0.01339
   4.51213    0.01343
   4.51559    0.01350
   4.51906    0.01361
   4.52253    0.01376
   4.52600    0.01394
   4.52947    0.01417
   4.53294    0.01443
   4.53641    0.01475
   4.53988    0.01512
   4.54335    0.01554
   4.54682    0.01602
   4.55029    0.01657
   4.55376    0.01719
   4.55723    0.01789
   4.56070    0.01866
   4.56417    0.01950
   4.56764    0.02041
   4.57111    0.02138
   4.57458    0.02236
   4.57805    0.02334
   4.58152    0.02424
   4.58498    0.02503
   4.58845    0.02563
   4.59192    0.02602
   4.59539    0.02616
   4.59886    0.02608
   4.60233    0.02580
   4.60580    0.02540
   4.60927    0.02492
   4.61274    0.02442
   4.61621    0.02395
   4.61968    0.02353
   4.62315    0.02321
   4.62662    0.02297
   4.63009    0.02284
   4.63356    0.02281
   4.63703    0.02288
   4.64050    0.02306
   4.64397    0.02334
   4.64744    0.02374
   4.65091    0.02424
   4.65437    0.02485
   4.65784    0.02557
   4.66131    0.02641
   4.66478    0.02737
   4.66825    0.02845
   4.67172    0.02964
   4.67519    0.03094
   4.67866    0.03232
   4.68213    0.03377
   4.68560    0.03524
   4.68907    0.03670
   4.69254    0.03813
   4.69601    0.03952
   4.69948    0.04087
   4.70295    0.04222
   4.70642    0.04363
   4.70989    0.04514
   4.71336    0.04682
   4.71683    0.04871
   4.72030    0.05083
   4.72376    0.05317
   4.72723    0.05568
   4.73070    0.05826
   4.73417    0.06079
   4.73764    0.06309
   4.74111    0.06495
   4.74458    0.06621
   4.74805    0.06672
   4.75152    0.06645
   4.75499    0.06544
   4.75846    0.06384
   4.76193    0.06182
   4.76540    0.05957
   4.76887    0.05726
   4.77234    0.05503
   4.77581    0.05296
   4.77928    0.05110
   4.78275    0.04949
   4.78622    0.04813
   4.78968    0.04702
   4.79315    0.04614
   4.79662    0.04548
   4.80009    0.04503
   4.80356    0.04476
   4.80703    0.04467
   4.81050    0.04473
   4.81397    0.04495
   4.81744    0.04531
   4.82091    0.04580
   4.82438    0.04643
   4.82785    0.04718
   4.83132    0.04805
   4.83479    0.04905
   4.83826    0.05017
   4.84173    0.05141
   4.84520    0.05279
   4.84867    0.05429
   4.85214    0.05594
   4.85561    0.05773
   4.85908    0.05967
   4.86254    0.06178
   4.86601    0.06406
   4.86948    0.06653
   4.87295    0.06920
   4.87642    0.07209
   4.87989    0.07522
   4.88336    0.07861
   4.88683    0.08229
   4.89030    0.08629
   4.89377    0.09064
   4.89724    0.09538
  4.900709   0.100551
  4.904178   0.106204
  4.907648   0.112397
  4.911117   0.119195
  4.914587   0.126674
  4.918056   0.134917
  4.921526   0.144023
  4.924995   0.154098
  4.928465   0.165265
  4.931934   0.177656
  4.935404   0.191413
  4.938873   0.206681
  4.942343   0.223603
  4.945812   0.242296
  4.949282   0.262843
  4.952751   0.285245
  4.956221   0.309405
  4.959690   0.335068
  4.963160   0.361822
  4.966629   0.389074
  4.970099   0.416133
  4.973568   0.442289
  4.977038   0.466977
  4.980507   0.489873
  4.983977   0.510973
  4.987446   0.530529
  4.990916   0.548954
  4.994385   0.566643
  4.997855   0.583839
  5.001324   0.600484
  5.004794   0.616194
  5.008263   0.630293
  5.011733   0.642019
  5.015202   0.650793
  5.018672   0.656512
  5.022141   0.659717
  5.025611   0.661558
  5.029080   0.663604
  5.032550   0.667561
  5.036019   0.675017
  5.039488   0.687273
  5.042958   0.705243
  5.046428   0.729392
  5.049897   0.759680
  5.053367   0.795485
  5.056836   0.835487
  5.060306   0.877546
  5.063775   0.918705
  5.067245   0.955291
  5.070714   0.983332
  5.074183   0.999128
  5.077653   1.000000
  5.081122   0.984848
  5.084592   0.954383
  5.088061   0.910926
  5.091531   0.857813
  5.095000   0.798753
  5.098470   0.737181
  5.101939   0.675932
  5.105409   0.617040
  5.108879   0.561824
  5.112348   0.510971
  5.115818   0.464741
  5.119287   0.423070
  5.122756   0.385729
  5.126226   0.352375
  5.129695   0.322639
  5.133165   0.296137
  5.136634   0.272511
  5.140104   0.251419
  5.143573   0.232564
  5.147043   0.215668
  5.150512   0.200493
  5.153982   0.186821
  5.157452   0.174466
  5.160921   0.163259
  5.164391   0.153059
  5.167860   0.143741
  5.171329   0.135205
  5.174799   0.127364
  5.178268   0.120149
  5.181738   0.113501
  5.185207   0.107366
  5.188677   0.101699
   5.19215    0.09646
   5.19562    0.09161
   5.19909    0.08711
   5.20256    0.08293
   5.20602    0.07905
   5.20949    0.07544
   5.21296    0.07207
   5.21643    0.06892
   5.21990    0.06598
   5.22337    0.06323
   5.22684    0.06064
   5.23031    0.05822
   5.23378    0.05593
   5.23725    0.05379
   5.24072    0.05176
   5.24419    0.04985
   5.24766    0.04805
   5.25113    0.04634
   5.25460    0.04473
   5.25807    0.04319
   5.26154    0.04174
   5.26501    0.04036
   5.26848    0.03905
   5.27194    0.03781
   5.27541    0.03662
   5.27888    0.03549
   5.28235    0.03441
   5.28582    0.03339
   5.28929    0.03241
   5.29276    0.03147
   5.29623    0.03057
   5.29970    0.02971
   5.30317    0.02889
   5.30664    0.02811
   5.31011    0.02735
   5.31358    0.02663
   5.31705    0.02593
   5.32052    0.02527
   5.32399    0.02463
   5.32746    0.02401
   5.33093    0.02342
   5.33440    0.02285
   5.33787    0.02230
   5.34133    0.02177
   5.34480    0.02127
   5.34827    0.02078
   5.35174    0.02030
   5.35521    0.01985
   5.35868    0.01941
   5.36215    0.01898
   5.36562    0.01857
   5.36909    0.01818
   5.37256    0.01779
   5.37603    0.01742
   5.37950    0.01706
   5.38297    0.01672
   5.38644    0.01638
   5.38991    0.01606
   5.39338    0.01574
   5.39685    0.01544
   5.40032    0.01514
   5.40379    0.01486
   5.40726    0.01458
   5.41072    0.01431
   5.41419    0.01405
   5.41766    0.01380
   5.42113    0.01355
   5.42460    0.01331
   5.42807    0.01308
   5.43154    0.01286
   5.43501    0.01264
   5.43848    0.01243
   5.44195    0.01222
   5.44542    0.01203
   5.44889    0.01183
   5.45236    0.01164
   5.45583    0.01146
   5.45930    0.01128
   5.46277    0.01111
   5.46624    0.01094
   5.46971    0.01078
   5.47318    0.01062
   5.47664    0.01047
   5.48011    0.01032
   5.48358    0.01017
   5.48705    0.01003
    5.4905     0.0099
    5.4940     0.0098
    5.4975     0.0096
    5.5009     0.0095
    5.5044     0.0094
    5.5079     0.0093
    5.5113     0.0091
    5.5148     0.0090
    5.5183     0.0089
    5.5217     0.0088
    5.5252     0.0087
    5.5287     0.0086
    5.5322     0.0085
    5.5356     0.0084
    5.5391     0.0083
    5.5426     0.0083
    5.5460     0.0082
    5.5495     0.0081
    5.5530     0.0080
    5.5564     0.0079
    5.5599     0.0079
    5.5634     0.0078
    5.5669     0.0077
    5.5703     0.0077
    5.5738     0.0076
    5.5773     0.0076
    5.5807     0.0075
    5.5842     0.0075
    5.5877     0.0074
    5.5911     0.0074
    5.5946     0.0074
    5.5981     0.0073
    5.6015     0.0073
    5.6050     0.0073
    5.6085     0.0072
    5.6120     0.0072
    5.6154     0.0072
    5.6189     0.0072
    5.6224     0.0072
    5.6258     0.0072
    5.6293     0.0072
    5.6328     0.0072
    5.6362     0.0073
    5.6397     0.0073
    5.6432     0.0073
    5.6467     0.0074
    5.6501     0.0074
    5.6536     0.0075
    5.6571     0.0076
    5.6605     0.0077
    5.6640     0.0078
    5.6675     0.0079
    5.6709     0.0080
    5.6744     0.0082
    5.6779     0.0084
    5.6813     0.0086
    5.6848     0.0088
    5.6883     0.0090
    5.6918     0.0093
    5.6952     0.0096
   5.69869    0.01001
   5.70216    0.01043
   5.70563    0.01090
   5.70910    0.01142
   5.71257    0.01202
   5.71604    0.01270
   5.71951    0.01346
   5.72298    0.01431
   5.72645    0.01527
   5.72992    0.01632
   5.73339    0.01747
   5.73686    0.01872
   5.74033    0.02004
   5.74380    0.02140
   5.74727    0.02276
   5.75074    0.02408
   5.75420    0.02530
   5.75767    0.02637
   5.76114    0.02725
   5.76461    0.02790
   5.76808    0.02828
   5.77155    0.02839
   5.77502    0.02820
   5.77849    0.02771
   5.78196    0.02696
   5.78543    0.02597
   5.78890    0.02480
   5.79237    0.02350
   5.79584    0.02212
   5.79931    0.02073
   5.80278    0.01936
   5.80625    0.01806
   5.80972    0.01684
   5.81319    0.01572
   5.81666    0.01472
   5.82013    0.01381
   5.82359    0.01301
   5.82706    0.01230
   5.83053    0.01168
   5.83400    0.01114
   5.83747    0.01066
   5.84094    0.01026
    5.8444     0.0099
    5.8479     0.0096
    5.8514     0.0094
    5.8548     0.0092
    5.8583     0.0090
    5.8618     0.0089
    5.8652     0.0088
    5.8687     0.0088
    5.8722     0.0088
    5.8756     0.0088
    5.8791     0.0089
    5.8826     0.0091
    5.8860     0.0093
    5.8895     0.0095
    5.8930     0.0098
   5.89645    0.01011
   5.89992    0.01052
   5.90339    0.01099
   5.90686    0.01153
   5.91033    0.01214
   5.91380    0.01281
   5.91727    0.01354
   5.92074    0.01431
   5.92421    0.01511
   5.92768    0.01589
   5.93115    0.01665
   5.93462    0.01734
   5.93809    0.01794
   5.94156    0.01843
   5.94503    0.01878
   5.94850    0.01897
   5.95197    0.01897
   5.95544    0.01877
   5.95890    0.01836
   5.96237    0.01777
   5.96584    0.01704
   5.96931    0.01620
   5.97278    0.01532
   5.97625    0.01444
   5.97972    0.01359
   5.98319    0.01280
   5.98666    0.01208
   5.99013    0.01145
   5.99360    0.01089
   5.99707    0.01042
   6.00054    0.01003
    6.0040     0.0097
    6.0075     0.0095
    6.0109     0.0093
    6.0144     0.0092
    6.0179     0.0092
    6.0214     0.0092
    6.0248     0.0093
    6.0283     0.0094
    6.0318     0.0097
    6.0352     0.0099
   6.03870    0.01026
   6.04217    0.01061
   6.04564    0.01099
   6.04911    0.01134
   6.05258    0.01165
   6.05605    0.01188
   6.05952    0.01198
   6.06299    0.01195
   6.06646    0.01177
   6.06993    0.01146
   6.07340    0.01104
   6.07687    0.01056
   6.08034    0.01003
    6.0838     0.0095
    6.0873     0.0090
    6.0907     0.0085
    6.0942     0.0081
    6.0977     0.0077
    6.1012     0.0073
    6.1046     0.0070
    6.1081     0.0068
    6.1116     0.0066
    6.1150     0.0064
    6.1185     0.0063
    6.1220     0.0063
    6.1254     0.0062
    6.1289     0.0062
    6.1324     0.0062
    6.1358     0.0063
    6.1393     0.0064
    6.1428     0.0065
    6.1463     0.0067
    6.1497     0.0068
    6.1532     0.0070
    6.1567     0.0071
    6.1601     0.0072
    6.1636     0.0072
    6.1671     0.0071
    6.1705     0.0070
    6.1740     0.0068
    6.1775     0.0066
    6.1810     0.0064
  6.184     0.6122E-2
  6.188     0.5873E-2
  6.191     0.5639E-2
  6.195     0.5424E-2
  6.198     0.5233E-2
  6.202     0.5067E-2
  6.205     0.4928E-2
  6.209     0.4815E-2
  6.212     0.4727E-2
  6.216     0.4664E-2
  6.219     0.4625E-2
  6.223     0.4611E-2
  6.226     0.4621E-2
  6.230     0.4655E-2
  6.233     0.4716E-2
  6.236     0.4802E-2
  6.240     0.4918E-2
  6.243     0.5063E-2
  6.247     0.5241E-2
  6.250     0.5453E-2
  6.254     0.5700E-2
  6.257     0.5984E-2
    6.2608     0.0063
    6.2642     0.0067
    6.2677     0.0070
    6.2712     0.0074
    6.2746     0.0078
    6.2781     0.0081
    6.2816     0.0084
    6.2850     0.0086
    6.2885     0.0086
    6.2920     0.0086
    6.2954     0.0084
    6.2989     0.0081
    6.3024     0.0077
    6.3059     0.0073
    6.3093     0.0069
    6.3128     0.0064
  6.316     0.6029E-2
  6.320     0.5639E-2
  6.323     0.5281E-2
  6.327     0.4955E-2
  6.330     0.4663E-2
  6.334     0.4402E-2
  6.337     0.4170E-2
  6.341     0.3964E-2
  6.344     0.3781E-2
  6.347     0.3620E-2
  6.351     0.3477E-2
  6.354     0.3350E-2
  6.358     0.3238E-2
  6.361     0.3140E-2
  6.365     0.3053E-2
  6.368     0.2977E-2
  6.372     0.2911E-2
  6.375     0.2854E-2
  6.379     0.2805E-2
  6.382     0.2763E-2
  6.386     0.2729E-2
  6.389     0.2702E-2
  6.393     0.2682E-2
  6.396     0.2668E-2
  6.400     0.2661E-2
  6.403     0.2660E-2
  6.406     0.2667E-2
  6.410     0.2681E-2
  6.413     0.2702E-2
  6.417     0.2732E-2
  6.420     0.2770E-2
  6.424     0.2818E-2
  6.427     0.2877E-2
  6.431     0.2947E-2
  6.434     0.3030E-2
  6.438     0.3127E-2
  6.441     0.3240E-2
  6.445     0.3369E-2
  6.448     0.3516E-2
  6.452     0.3681E-2
  6.455     0.3864E-2
  6.459     0.4062E-2
  6.462     0.4272E-2
  6.465     0.4486E-2
  6.469     0.4694E-2
  6.472     0.4882E-2
  6.476     0.5037E-2
  6.479     0.5142E-2
  6.483     0.5187E-2
  6.486     0.5168E-2
  6.490     0.5086E-2
  6.493     0.4953E-2
  6.497     0.4782E-2
  6.500     0.4589E-2
  6.504     0.4387E-2
  6.507     0.4188E-2
  6.511     0.4000E-2
  6.514     0.3827E-2
  6.517     0.3673E-2
  6.521     0.3539E-2
  6.524     0.3423E-2
  6.528     0.3327E-2
  6.531     0.3248E-2
  6.535     0.3186E-2
  6.538     0.3140E-2
  6.542     0.3108E-2
  6.545     0.3091E-2
  6.549     0.3087E-2
  6.552     0.3096E-2
  6.556     0.3118E-2
  6.559     0.3153E-2
  6.563     0.3202E-2
  6.566     0.3265E-2
  6.570     0.3342E-2
  6.573     0.3435E-2
  6.576     0.3545E-2
  6.580     0.3673E-2
  6.583     0.3822E-2
  6.587     0.3993E-2
  6.590     0.4190E-2
  6.594     0.4414E-2
  6.597     0.4671E-2
  6.601     0.4963E-2
  6.604     0.5295E-2
  6.608     0.5672E-2
  6.611     0.6098E-2
  6.615     0.6579E-2
    6.6181     0.0071
    6.6216     0.0077
    6.6250     0.0084
    6.6285     0.0091
    6.6320     0.0098
   6.63546    0.01062
   6.63893    0.01139
   6.64240    0.01212
   6.64586    0.01275
   6.64933    0.01324
   6.65280    0.01355
   6.65627    0.01365
   6.65974    0.01352
   6.66321    0.01317
   6.66668    0.01264
   6.67015    0.01197
   6.67362    0.01121
   6.67709    0.01041
    6.6806     0.0096
    6.6840     0.0088
    6.6875     0.0081
    6.6910     0.0074
    6.6944     0.0068
  6.698     0.6267E-2
  6.701     0.5774E-2
  6.705     0.5335E-2
  6.708     0.4944E-2
  6.712     0.4597E-2
  6.715     0.4288E-2
  6.719     0.4013E-2
  6.722     0.3768E-2
  6.726     0.3549E-2
  6.729     0.3354E-2
  6.733     0.3179E-2
  6.736     0.3022E-2
  6.740     0.2881E-2
  6.743     0.2754E-2
  6.746     0.2640E-2
  6.750     0.2538E-2
  6.753     0.2445E-2
  6.757     0.2363E-2
  6.760     0.2288E-2
  6.764     0.2222E-2
  6.767     0.2162E-2
  6.771     0.2110E-2
  6.774     0.2063E-2
  6.778     0.2023E-2
  6.781     0.1989E-2
  6.785     0.1961E-2
  6.788     0.1938E-2
  6.792     0.1921E-2
  6.795     0.1909E-2
  6.799     0.1904E-2
  6.802     0.1905E-2
  6.805     0.1913E-2
  6.809     0.1927E-2
  6.812     0.1950E-2
  6.816     0.1980E-2
  6.819     0.2020E-2
  6.823     0.2069E-2
  6.826     0.2129E-2
  6.830     0.2199E-2
  6.833     0.2280E-2
  6.837     0.2371E-2
  6.840     0.2472E-2
  6.844     0.2578E-2
  6.847     0.2685E-2
  6.851     0.2787E-2
  6.854     0.2876E-2
  6.858     0.2943E-2
  6.861     0.2979E-2
  6.864     0.2979E-2
  6.868     0.2941E-2
  6.871     0.2867E-2
  6.875     0.2765E-2
  6.878     0.2643E-2
  6.882     0.2508E-2
  6.885     0.2370E-2
  6.889     0.2234E-2
  6.892     0.2104E-2
  6.896     0.1983E-2
  6.899     0.1871E-2
  6.903     0.1769E-2
  6.906     0.1678E-2
  6.910     0.1595E-2
  6.913     0.1520E-2
  6.916     0.1454E-2
  6.920     0.1393E-2
  6.923     0.1339E-2
  6.927     0.1290E-2
  6.930     0.1246E-2
  6.934     0.1205E-2
  6.937     0.1168E-2
  6.941     0.1135E-2
  6.944     0.1104E-2
  6.948     0.1076E-2
  6.951     0.1050E-2
  6.955     0.1025E-2
  6.958     0.1003E-2
  6.962     0.9821E-3
  6.965     0.9627E-3
  6.969     0.9445E-3
  6.972     0.9274E-3
  6.975     0.9113E-3
  6.979     0.8962E-3
  6.982     0.8820E-3
  6.986     0.8685E-3
  6.989     0.8557E-3
  6.993     0.8435E-3
  6.996     0.8320E-3
  7.000     0.8210E-3
  7.003     0.8105E-3
  7.007     0.8004E-3
  7.010     0.7908E-3
  7.014     0.7816E-3
  7.017     0.7727E-3
  7.021     0.7642E-3
  7.024     0.7560E-3
  7.028     0.7481E-3
  7.031     0.7405E-3
  7.034     0.7331E-3
  7.038     0.7260E-3
  7.041     0.7191E-3
  7.045     0.7125E-3
  7.048     0.7060E-3
  7.052     0.6997E-3
  7.055     0.6937E-3
  7.059     0.6877E-3
  7.062     0.6820E-3
  7.066     0.6764E-3
  7.069     0.6710E-3
  7.073     0.6656E-3
  7.076     0.6605E-3
  7.080     0.6554E-3
  7.083     0.6505E-3
  7.086     0.6457E-3
  7.090     0.6410E-3
  7.093     0.6363E-3
  7.097     0.6318E-3
  7.100     0.6274E-3
  7.104     0.6231E-3
  7.107     0.6189E-3
  7.111     0.6148E-3
  7.114     0.6107E-3
  7.118     0.6067E-3
  7.121     0.6028E-3
  7.125     0.5990E-3
  7.128     0.5952E-3
  7.132     0.5915E-3
  7.135     0.5879E-3
  7.139     0.5843E-3
  7.142     0.5808E-3
  7.145     0.5773E-3
  7.149     0.5739E-3
  7.152     0.5706E-3
  7.156     0.5673E-3
  7.159     0.5641E-3
  7.163     0.5609E-3
  7.166     0.5577E-3
  7.170     0.5546E-3
  7.173     0.5516E-3
  7.177     0.5486E-3
  7.180     0.5456E-3
  7.184     0.5427E-3
  7.187     0.5398E-3
  7.191     0.5370E-3
  7.194     0.5342E-3
  7.198     0.5314E-3
  7.201     0.5287E-3
  7.204     0.5260E-3
  7.208     0.5233E-3
  7.211     0.5207E-3
  7.215     0.5181E-3
  7.218     0.5155E-3
  7.222     0.5130E-3
  7.225     0.5105E-3
  7.229     0.5080E-3
  7.232     0.5055E-3
  7.236     0.5031E-3
  7.239     0.5007E-3
  7.243     0.4984E-3
  7.246     0.4960E-3
  7.250     0.4937E-3
  7.253     0.4914E-3
  7.256     0.4892E-3
  7.260     0.4869E-3
  7.263     0.4847E-3
  7.267     0.4825E-3
  7.270     0.4803E-3
  7.274     0.4782E-3
  7.277     0.4761E-3
  7.281     0.4740E-3
  7.284     0.4719E-3
  7.288     0.4698E-3
  7.291     0.4678E-3
  7.295     0.4657E-3
  7.298     0.4637E-3
  7.302     0.4617E-3
  7.305     0.4598E-3
  7.309     0.4578E-3
  7.312     0.4559E-3
  7.315     0.4540E-3
  7.319     0.4521E-3
  7.322     0.4502E-3
  7.326     0.4483E-3
  7.329     0.4465E-3
  7.333     0.4446E-3
  7.336     0.4428E-3
  7.340     0.4410E-3
  7.343     0.4392E-3
  7.347     0.4375E-3
  7.350     0.4357E-3
  7.354     0.4340E-3
  7.357     0.4323E-3
  7.361     0.4305E-3
# 
# 04/27/2021 at 16:16 YPP @ lux-1 [start]
# 04/27/2021 at 16:16             [end]
#  
# Timing   [Min/Max/Average]: 03s/03s/03s
#
# .-Input file : amp.in
# | excitons                     # [R] Excitons
# | amplitude                    # [R] Amplitude
# | BoseTemp= 0.000000     eV    # Bosonic Temperature
# | States= "1 - 9"              # Index of the BS state(s)
# | #DipWeight                   #  Weight the contribution to the exciton WFs with the dipoles
# | Degen_Step=0.1000E-4   eV    # Maximum energy separation of two degenerate states
