#                                                           
#  __  __   ________   ___ __ __    _______   ______        
# /_/\/_/\ /_______/\ /__//_//_/\ /_______/\ /_____/\       
# \ \ \ \ \\::: _  \ \\::\| \| \ \\::: _  \ \\:::_ \ \      
#  \:\_\ \ \\::(_)  \ \\:.      \ \\::(_)  \/_\:\ \ \ \     
#   \::::_\/ \:: __  \ \\:.\-/\  \ \\::  _  \ \\:\ \ \ \    
#     \::\ \  \:.\ \  \ \\. \  \  \ \\::(_)  \ \\:\_\ \ \   
#      \__\/   \__\/\__\/ \__\/ \__\/ \_______\/ \_____\/   
#                                                           
#                                                           
#              GPL Version 4.1.4 Revision 76                
#                        MPI Build                          
#                http://www.yambo-code.org                  
#
# BSK|Identifier              :2467
#    |Dimension               :14580
#    |Bands                   :100 - 180
#    |Exchange           [res]: yes
#    |Correlation        [res]: yes
#    |Kernel`s coupling       : no
#    |Exchange           [cpl]: no
#    |Correlation        [cpl]: no
#    |W interaction is bare   : no
#    |ALDA kernel in R-space  : no
#    |RL vectors    [exchange]:27983
#    |RL vectors [correlation]:4011
#    |E/h energy range    [ev]:-1.000000 - -1.000000
#    |Coupling range     [o/o]: 100.0000 -  100.0000
#  W |Interaction is diagonal : no
#    |Matrix size             :8049
#    |Bands                   :1 - 1800
#    |e/h energy range    [ev]:-1.000000 - -1.000000
#    |Poles              [o/o]: 100.0000
#    |RL vectors in the sum   :27983
#    |[r,Vnl] included        : yes
#    |Field direction         :0.1000E-4  0.000000  0.000000
#    |Coulomb Cutoff          :box z
#    |xc-Kernel               :none
# RIM|RL components      [col]:0
#    |Random points      [col]:0
#
# Electron-Hole pairs that contributes to Excitonic State 2 more than 5%
#
#  E    [eV]  Amplitude
#  
  3.753     0.2340E-2
  3.756     0.2358E-2
  3.758     0.2376E-2
  3.760     0.2394E-2
  3.762     0.2412E-2
  3.765     0.2430E-2
  3.767     0.2449E-2
  3.769     0.2468E-2
  3.771     0.2487E-2
  3.774     0.2506E-2
  3.776     0.2525E-2
  3.778     0.2545E-2
  3.781     0.2565E-2
  3.783     0.2585E-2
  3.785     0.2606E-2
  3.787     0.2627E-2
  3.790     0.2648E-2
  3.792     0.2669E-2
  3.794     0.2690E-2
  3.796     0.2712E-2
  3.799     0.2734E-2
  3.801     0.2757E-2
  3.803     0.2779E-2
  3.805     0.2802E-2
  3.808     0.2825E-2
  3.810     0.2849E-2
  3.812     0.2873E-2
  3.814     0.2897E-2
  3.817     0.2921E-2
  3.819     0.2946E-2
  3.821     0.2971E-2
  3.823     0.2996E-2
  3.826     0.3022E-2
  3.828     0.3048E-2
  3.830     0.3075E-2
  3.833     0.3102E-2
  3.835     0.3129E-2
  3.837     0.3156E-2
  3.839     0.3184E-2
  3.842     0.3213E-2
  3.844     0.3241E-2
  3.846     0.3270E-2
  3.848     0.3300E-2
  3.851     0.3330E-2
  3.853     0.3360E-2
  3.855     0.3391E-2
  3.857     0.3422E-2
  3.860     0.3454E-2
  3.862     0.3486E-2
  3.864     0.3519E-2
  3.866     0.3552E-2
  3.869     0.3586E-2
  3.871     0.3620E-2
  3.873     0.3654E-2
  3.875     0.3690E-2
  3.878     0.3725E-2
  3.880     0.3761E-2
  3.882     0.3798E-2
  3.884     0.3836E-2
  3.887     0.3874E-2
    3.8890     0.0039
    3.8913     0.0040
    3.8935     0.0040
    3.8958     0.0040
    3.8981     0.0041
    3.9003     0.0041
    3.9026     0.0042
    3.9048     0.0042
    3.9071     0.0042
    3.9094     0.0043
    3.9116     0.0043
    3.9139     0.0044
    3.9161     0.0044
    3.9184     0.0045
    3.9207     0.0045
    3.9229     0.0046
    3.9252     0.0046
    3.9274     0.0047
    3.9297     0.0047
    3.9320     0.0048
    3.9342     0.0048
    3.9365     0.0049
    3.9388     0.0049
    3.9410     0.0050
    3.9433     0.0051
    3.9455     0.0051
    3.9478     0.0052
    3.9501     0.0052
    3.9523     0.0053
    3.9546     0.0054
    3.9568     0.0054
    3.9591     0.0055
    3.9614     0.0056
    3.9636     0.0056
    3.9659     0.0057
    3.9681     0.0058
    3.9704     0.0058
    3.9727     0.0059
    3.9749     0.0060
    3.9772     0.0061
    3.9794     0.0061
    3.9817     0.0062
    3.9840     0.0063
    3.9862     0.0064
    3.9885     0.0065
    3.9907     0.0066
    3.9930     0.0066
    3.9953     0.0067
    3.9975     0.0068
    3.9998     0.0069
    4.0020     0.0070
    4.0043     0.0071
    4.0066     0.0072
    4.0088     0.0073
    4.0111     0.0074
    4.0134     0.0075
    4.0156     0.0076
    4.0179     0.0078
    4.0201     0.0079
    4.0224     0.0080
    4.0247     0.0081
    4.0269     0.0082
    4.0292     0.0084
    4.0314     0.0085
    4.0337     0.0086
    4.0360     0.0088
    4.0382     0.0089
    4.0405     0.0091
    4.0427     0.0092
    4.0450     0.0094
    4.0473     0.0095
    4.0495     0.0097
    4.0518     0.0099
   4.05404    0.01003
   4.05630    0.01020
   4.05856    0.01038
   4.06082    0.01057
   4.06309    0.01076
   4.06535    0.01096
   4.06761    0.01116
   4.06987    0.01138
   4.07213    0.01159
   4.07439    0.01182
   4.07665    0.01205
   4.07891    0.01228
   4.08117    0.01253
   4.08343    0.01279
   4.08569    0.01305
   4.08795    0.01332
   4.09021    0.01360
   4.09247    0.01389
   4.09474    0.01419
   4.09700    0.01451
   4.09926    0.01483
   4.10152    0.01517
   4.10378    0.01551
   4.10604    0.01588
   4.10830    0.01625
   4.11056    0.01664
   4.11282    0.01705
   4.11508    0.01748
   4.11734    0.01792
   4.11960    0.01838
   4.12186    0.01886
   4.12412    0.01936
   4.12638    0.01988
   4.12864    0.02043
   4.13091    0.02100
   4.13317    0.02160
   4.13543    0.02223
   4.13769    0.02289
   4.13995    0.02359
   4.14221    0.02432
   4.14447    0.02509
   4.14673    0.02589
   4.14899    0.02675
   4.15125    0.02765
   4.15351    0.02860
   4.15577    0.02961
   4.15803    0.03068
   4.16029    0.03181
   4.16255    0.03302
   4.16481    0.03430
   4.16708    0.03567
   4.16934    0.03713
   4.17160    0.03869
   4.17386    0.04036
   4.17612    0.04216
   4.17838    0.04409
   4.18064    0.04616
   4.18290    0.04840
   4.18516    0.05083
   4.18742    0.05346
   4.18968    0.05631
   4.19194    0.05942
   4.19420    0.06281
   4.19646    0.06652
   4.19872    0.07058
   4.20098    0.07505
   4.20325    0.07998
   4.20551    0.08543
   4.20777    0.09146
   4.21003    0.09816
  4.212288   0.105629
  4.214549   0.113960
  4.216809   0.123277
  4.219070   0.133716
  4.221331   0.145418
  4.223591   0.158543
  4.225852   0.173250
  4.228113   0.189693
  4.230373   0.207987
  4.232634   0.228195
  4.234894   0.250270
  4.237155   0.273999
  4.239416   0.298919
  4.241676   0.324259
  4.243937   0.348861
  4.246198   0.371237
  4.248458   0.389673
  4.250719   0.402496
  4.252980   0.408422
  4.255240   0.406868
  4.257501   0.398123
  4.259761   0.383258
  4.262022   0.363853
  4.264283   0.341655
  4.266543   0.318259
  4.268804   0.294947
  4.271065   0.272630
  4.273325   0.251876
  4.275586   0.232990
  4.277847   0.216075
  4.280107   0.201109
  4.282368   0.187996
  4.284628   0.176602
  4.286890   0.166775
  4.289150   0.158370
  4.291410   0.151247
  4.293671   0.145279
  4.295932   0.140354
  4.298193   0.136379
  4.300453   0.133270
  4.302714   0.130961
  4.304974   0.129399
  4.307235   0.128540
  4.309496   0.128353
  4.311756   0.128818
  4.314017   0.129923
  4.316278   0.131665
  4.318538   0.134052
  4.320799   0.137100
  4.323060   0.140834
  4.325320   0.145290
  4.327580   0.150514
  4.329842   0.156565
  4.332102   0.163510
  4.334363   0.171434
  4.336623   0.180439
  4.338884   0.190642
  4.341145   0.202184
  4.343405   0.215223
  4.345666   0.229948
  4.347927   0.246574
  4.350187   0.265350
  4.352448   0.286559
  4.354709   0.310506
  4.356969   0.337537
  4.359230   0.368013
  4.361490   0.402297
  4.363751   0.440735
  4.366012   0.483572
  4.368272   0.530929
  4.370533   0.582677
  4.372793   0.638325
  4.375054   0.696914
  4.377315   0.756868
  4.379575   0.816037
  4.381836   0.871724
  4.384097   0.920894
  4.386357   0.960457
  4.388618   0.987567
  4.390879   1.000000
  4.393139   0.996461
  4.395400   0.976890
  4.397661   0.942601
  4.399921   0.896172
  4.402182   0.840982
  4.404442   0.780651
  4.406703   0.718497
  4.408964   0.657179
  4.411224   0.598624
  4.413485   0.544000
  4.415746   0.493905
  4.418006   0.448510
  4.420267   0.407703
  4.422528   0.371225
  4.424788   0.338711
  4.427049   0.309774
  4.429309   0.284027
  4.431571   0.261102
  4.433831   0.240672
  4.436091   0.222434
  4.438352   0.206122
  4.440613   0.191499
  4.442873   0.178366
  4.445134   0.166544
  4.447395   0.155877
  4.449655   0.146233
  4.451916   0.137494
  4.454177   0.129557
  4.456437   0.122339
  4.458698   0.115761
  4.460958   0.109755
  4.463219   0.104264
   4.46548    0.09924
   4.46774    0.09463
   4.47000    0.09040
   4.47226    0.08651
   4.47452    0.08295
   4.47678    0.07966
   4.47904    0.07665
   4.48130    0.07388
   4.48356    0.07133
   4.48583    0.06899
   4.48809    0.06685
   4.49035    0.06490
   4.49261    0.06312
   4.49487    0.06150
   4.49713    0.06004
   4.49939    0.05874
   4.50165    0.05758
   4.50391    0.05657
   4.50617    0.05570
   4.50843    0.05498
   4.51069    0.05440
   4.51295    0.05397
   4.51521    0.05368
   4.51747    0.05356
   4.51974    0.05360
   4.52200    0.05382
   4.52426    0.05423
   4.52652    0.05484
   4.52878    0.05567
   4.53104    0.05675
   4.53330    0.05809
   4.53556    0.05973
   4.53782    0.06170
   4.54008    0.06402
   4.54234    0.06674
   4.54460    0.06988
   4.54686    0.07345
   4.54912    0.07747
   4.55138    0.08190
   4.55364    0.08668
   4.55591    0.09168
   4.55817    0.09670
  4.560427   0.101449
  4.562687   0.105591
  4.564948   0.108756
  4.567209   0.110616
  4.569469   0.110960
  4.571730   0.109753
  4.573990   0.107139
  4.576252   0.103407
   4.57851    0.09892
   4.58077    0.09405
   4.58303    0.08910
   4.58529    0.08432
   4.58755    0.07986
   4.58982    0.07582
   4.59208    0.07226
   4.59434    0.06917
   4.59660    0.06656
   4.59886    0.06440
   4.60112    0.06267
   4.60338    0.06135
   4.60564    0.06041
   4.60790    0.05984
   4.61016    0.05963
   4.61242    0.05977
   4.61468    0.06025
   4.61694    0.06108
   4.61920    0.06227
   4.62146    0.06384
   4.62372    0.06580
   4.62599    0.06819
   4.62825    0.07105
   4.63051    0.07441
   4.63277    0.07832
   4.63503    0.08285
   4.63729    0.08806
   4.63955    0.09400
  4.641809   0.100747
  4.644071   0.108347
  4.646331   0.116825
  4.648592   0.126171
  4.650852   0.136306
  4.653113   0.147066
  4.655374   0.158164
  4.657634   0.169201
  4.659895   0.179668
  4.662155   0.189022
  4.664416   0.196779
  4.666677   0.202637
  4.668937   0.206565
  4.671198   0.208815
  4.673459   0.209856
  4.675719   0.210234
  4.677980   0.210440
  4.680241   0.210791
  4.682501   0.211362
  4.684762   0.211971
  4.687023   0.212215
  4.689283   0.211543
  4.691544   0.209389
  4.693804   0.205299
  4.696065   0.199059
  4.698326   0.190743
  4.700586   0.180698
  4.702847   0.169440
  4.705108   0.157544
  4.707368   0.145539
  4.709629   0.133846
  4.711890   0.122764
  4.714150   0.112466
  4.716411   0.103035
   4.71867    0.09448
   4.72093    0.08678
   4.72319    0.07987
   4.72545    0.07368
   4.72771    0.06815
   4.72997    0.06320
   4.73224    0.05877
   4.73450    0.05479
   4.73676    0.05122
   4.73902    0.04800
   4.74128    0.04510
   4.74354    0.04247
   4.74580    0.04008
   4.74806    0.03791
   4.75032    0.03593
   4.75258    0.03413
   4.75484    0.03247
   4.75710    0.03095
   4.75936    0.02956
   4.76162    0.02827
   4.76388    0.02708
   4.76615    0.02598
   4.76841    0.02496
   4.77067    0.02401
   4.77293    0.02313
   4.77519    0.02231
   4.77745    0.02155
   4.77971    0.02084
   4.78197    0.02017
   4.78423    0.01954
   4.78649    0.01896
   4.78875    0.01841
   4.79101    0.01789
   4.79327    0.01741
   4.79553    0.01695
   4.79779    0.01652
   4.80005    0.01612
   4.80232    0.01574
   4.80458    0.01538
   4.80684    0.01504
   4.80910    0.01473
   4.81136    0.01443
   4.81362    0.01414
   4.81588    0.01388
   4.81814    0.01363
   4.82040    0.01339
   4.82266    0.01317
   4.82492    0.01296
   4.82718    0.01276
   4.82944    0.01258
   4.83170    0.01240
   4.83396    0.01224
   4.83622    0.01209
   4.83849    0.01195
   4.84075    0.01183
   4.84301    0.01171
   4.84527    0.01160
   4.84753    0.01150
   4.84979    0.01141
   4.85205    0.01133
   4.85431    0.01126
   4.85657    0.01120
   4.85883    0.01115
   4.86109    0.01111
   4.86335    0.01108
   4.86561    0.01105
   4.86787    0.01104
   4.87013    0.01104
   4.87240    0.01105
   4.87466    0.01107
   4.87692    0.01110
   4.87918    0.01114
   4.88144    0.01119
   4.88370    0.01126
   4.88596    0.01134
   4.88822    0.01143
   4.89048    0.01154
   4.89274    0.01166
   4.89500    0.01180
   4.89726    0.01195
   4.89952    0.01213
   4.90178    0.01232
   4.90404    0.01254
   4.90630    0.01278
   4.90857    0.01304
   4.91083    0.01333
   4.91309    0.01365
   4.91535    0.01401
   4.91761    0.01440
   4.91987    0.01483
   4.92213    0.01530
   4.92439    0.01582
   4.92665    0.01640
   4.92891    0.01703
   4.93117    0.01773
   4.93343    0.01850
   4.93569    0.01936
   4.93795    0.02031
   4.94021    0.02137
   4.94247    0.02255
   4.94474    0.02386
   4.94700    0.02532
   4.94926    0.02696
   4.95152    0.02879
   4.95378    0.03083
   4.95604    0.03311
   4.95830    0.03565
   4.96056    0.03846
   4.96282    0.04157
   4.96508    0.04497
   4.96734    0.04864
   4.96960    0.05255
   4.97186    0.05662
   4.97412    0.06077
   4.97638    0.06491
   4.97865    0.06893
   4.98091    0.07277
   4.98317    0.07643
   4.98543    0.07991
   4.98769    0.08328
   4.98995    0.08658
   4.99221    0.08981
   4.99447    0.09292
   4.99673    0.09580
   4.99899    0.09831
  5.001252   0.100343
  5.003512   0.101792
  5.005773   0.102610
  5.008033   0.102765
  5.010294   0.102219
  5.012555   0.100908
   5.01482    0.09876
   5.01708    0.09573
   5.01934    0.09183
   5.02160    0.08718
   5.02386    0.08196
   5.02612    0.07640
   5.02838    0.07075
   5.03064    0.06520
   5.03290    0.05991
   5.03516    0.05497
   5.03742    0.05044
   5.03968    0.04633
   5.04194    0.04263
   5.04420    0.03933
   5.04646    0.03639
   5.04872    0.03378
   5.05099    0.03146
   5.05325    0.02941
   5.05551    0.02760
   5.05777    0.02600
   5.06003    0.02459
   5.06229    0.02336
   5.06455    0.02228
   5.06681    0.02134
   5.06907    0.02054
   5.07133    0.01985
   5.07359    0.01928
   5.07585    0.01881
   5.07811    0.01844
   5.08037    0.01815
   5.08263    0.01795
   5.08490    0.01780
   5.08716    0.01769
   5.08942    0.01761
   5.09168    0.01753
   5.09394    0.01743
   5.09620    0.01730
   5.09846    0.01714
   5.10072    0.01695
   5.10298    0.01674
   5.10524    0.01654
   5.10750    0.01635
   5.10976    0.01620
   5.11202    0.01608
   5.11428    0.01599
   5.11654    0.01592
   5.11880    0.01585
   5.12107    0.01577
   5.12333    0.01566
   5.12559    0.01552
   5.12785    0.01537
   5.13011    0.01520
   5.13237    0.01504
   5.13463    0.01491
   5.13689    0.01481
   5.13915    0.01474
   5.14141    0.01469
   5.14367    0.01464
   5.14593    0.01457
   5.14819    0.01445
   5.15045    0.01426
   5.15271    0.01398
   5.15497    0.01360
   5.15724    0.01316
   5.15950    0.01265
   5.16176    0.01212
   5.16402    0.01159
   5.16628    0.01107
   5.16854    0.01058
   5.17080    0.01014
    5.1731     0.0097
    5.1753     0.0094
    5.1776     0.0091
    5.1798     0.0088
    5.1821     0.0086
    5.1844     0.0084
    5.1866     0.0082
    5.1889     0.0081
    5.1911     0.0081
    5.1934     0.0080
    5.1957     0.0080
    5.1979     0.0081
    5.2002     0.0081
    5.2024     0.0083
    5.2047     0.0084
    5.2070     0.0086
    5.2092     0.0089
    5.2115     0.0092
    5.2138     0.0095
    5.2160     0.0100
   5.21827    0.01045
   5.22053    0.01102
   5.22279    0.01168
   5.22505    0.01243
   5.22732    0.01325
   5.22958    0.01416
   5.23184    0.01513
   5.23410    0.01612
   5.23636    0.01711
   5.23862    0.01802
   5.24088    0.01878
   5.24314    0.01932
   5.24540    0.01958
   5.24766    0.01951
   5.24992    0.01913
   5.25218    0.01847
   5.25444    0.01760
   5.25670    0.01658
   5.25896    0.01549
   5.26123    0.01438
   5.26349    0.01331
   5.26575    0.01230
   5.26801    0.01137
   5.27027    0.01052
    5.2725     0.0097
    5.2748     0.0091
    5.2770     0.0084
    5.2793     0.0079
    5.2816     0.0074
    5.2838     0.0069
    5.2861     0.0066
    5.2884     0.0062
    5.2906     0.0059
    5.2929     0.0056
    5.2951     0.0053
  5.297     0.5096E-2
  5.300     0.4882E-2
  5.302     0.4688E-2
  5.304     0.4510E-2
  5.306     0.4348E-2
  5.309     0.4198E-2
  5.311     0.4061E-2
  5.313     0.3934E-2
  5.315     0.3817E-2
  5.318     0.3709E-2
  5.320     0.3608E-2
  5.322     0.3514E-2
  5.325     0.3427E-2
  5.327     0.3345E-2
  5.329     0.3269E-2
  5.331     0.3198E-2
  5.334     0.3131E-2
  5.336     0.3068E-2
  5.338     0.3009E-2
  5.340     0.2953E-2
  5.343     0.2901E-2
  5.345     0.2852E-2
  5.347     0.2805E-2
  5.349     0.2761E-2
  5.352     0.2720E-2
  5.354     0.2681E-2
  5.356     0.2644E-2
  5.358     0.2609E-2
  5.361     0.2576E-2
  5.363     0.2545E-2
  5.365     0.2516E-2
  5.367     0.2488E-2
  5.370     0.2462E-2
  5.372     0.2438E-2
  5.374     0.2415E-2
  5.377     0.2393E-2
  5.379     0.2374E-2
  5.381     0.2355E-2
  5.383     0.2338E-2
  5.386     0.2322E-2
  5.388     0.2307E-2
  5.390     0.2294E-2
  5.392     0.2283E-2
  5.395     0.2272E-2
  5.397     0.2263E-2
  5.399     0.2256E-2
  5.401     0.2250E-2
  5.404     0.2245E-2
  5.406     0.2242E-2
  5.408     0.2240E-2
  5.410     0.2240E-2
  5.413     0.2242E-2
  5.415     0.2245E-2
  5.417     0.2251E-2
  5.419     0.2258E-2
  5.422     0.2267E-2
  5.424     0.2279E-2
  5.426     0.2293E-2
  5.429     0.2310E-2
  5.431     0.2329E-2
  5.433     0.2352E-2
  5.435     0.2378E-2
  5.438     0.2407E-2
  5.440     0.2440E-2
  5.442     0.2478E-2
  5.444     0.2520E-2
  5.447     0.2567E-2
  5.449     0.2621E-2
  5.451     0.2681E-2
  5.453     0.2748E-2
  5.456     0.2823E-2
  5.458     0.2907E-2
  5.460     0.3001E-2
  5.462     0.3106E-2
  5.465     0.3225E-2
  5.467     0.3359E-2
  5.469     0.3509E-2
  5.471     0.3678E-2
  5.474     0.3869E-2
  5.476     0.4084E-2
  5.478     0.4327E-2
  5.481     0.4603E-2
  5.483     0.4914E-2
  5.485     0.5265E-2
    5.4873     0.0057
    5.4895     0.0061
    5.4918     0.0066
    5.4941     0.0071
    5.4963     0.0077
    5.4986     0.0084
    5.5009     0.0090
    5.5031     0.0097
   5.50537    0.01034
   5.50763    0.01089
   5.50990    0.01132
   5.51216    0.01158
   5.51442    0.01164
   5.51668    0.01149
   5.51894    0.01115
   5.52120    0.01066
   5.52346    0.01006
    5.5257     0.0094
    5.5280     0.0087
    5.5302     0.0080
    5.5325     0.0074
    5.5348     0.0068
    5.5370     0.0063
    5.5393     0.0058
  5.542     0.5315E-2
  5.544     0.4918E-2
  5.546     0.4565E-2
  5.548     0.4250E-2
  5.551     0.3969E-2
  5.553     0.3719E-2
  5.555     0.3496E-2
  5.557     0.3295E-2
  5.560     0.3116E-2
  5.562     0.2954E-2
  5.564     0.2809E-2
  5.566     0.2677E-2
  5.569     0.2558E-2
  5.571     0.2449E-2
  5.573     0.2350E-2
  5.575     0.2259E-2
  5.578     0.2177E-2
  5.580     0.2100E-2
  5.582     0.2030E-2
  5.584     0.1965E-2
  5.587     0.1906E-2
  5.589     0.1850E-2
  5.591     0.1798E-2
  5.594     0.1750E-2
  5.596     0.1705E-2
  5.598     0.1663E-2
  5.600     0.1624E-2
  5.603     0.1587E-2
  5.605     0.1552E-2
  5.607     0.1520E-2
  5.609     0.1489E-2
  5.612     0.1460E-2
  5.614     0.1432E-2
  5.616     0.1406E-2
  5.618     0.1381E-2
  5.621     0.1357E-2
  5.623     0.1335E-2
  5.625     0.1314E-2
  5.627     0.1293E-2
  5.630     0.1274E-2
  5.632     0.1255E-2
  5.634     0.1237E-2
  5.636     0.1220E-2
  5.639     0.1204E-2
  5.641     0.1188E-2
  5.643     0.1173E-2
  5.646     0.1158E-2
  5.648     0.1144E-2
  5.650     0.1130E-2
  5.652     0.1117E-2
  5.655     0.1105E-2
  5.657     0.1092E-2
  5.659     0.1081E-2
  5.661     0.1069E-2
  5.664     0.1058E-2
  5.666     0.1047E-2
  5.668     0.1037E-2
  5.670     0.1027E-2
  5.673     0.1017E-2
  5.675     0.1007E-2
  5.677     0.9980E-3
  5.679     0.9889E-3
  5.682     0.9801E-3
  5.684     0.9715E-3
  5.686     0.9632E-3
  5.688     0.9550E-3
  5.691     0.9470E-3
  5.693     0.9392E-3
  5.695     0.9316E-3
  5.698     0.9242E-3
  5.700     0.9169E-3
  5.702     0.9098E-3
  5.704     0.9028E-3
  5.707     0.8960E-3
  5.709     0.8894E-3
  5.711     0.8828E-3
  5.713     0.8764E-3
  5.716     0.8701E-3
  5.718     0.8640E-3
  5.720     0.8579E-3
  5.722     0.8520E-3
  5.725     0.8462E-3
  5.727     0.8405E-3
  5.729     0.8349E-3
  5.731     0.8294E-3
  5.734     0.8239E-3
  5.736     0.8186E-3
  5.738     0.8134E-3
  5.740     0.8082E-3
  5.743     0.8031E-3
  5.745     0.7981E-3
  5.747     0.7932E-3
  5.750     0.7884E-3
  5.752     0.7836E-3
  5.754     0.7789E-3
  5.756     0.7743E-3
  5.759     0.7698E-3
  5.761     0.7653E-3
  5.763     0.7608E-3
  5.765     0.7565E-3
  5.768     0.7522E-3
  5.770     0.7479E-3
  5.772     0.7437E-3
  5.774     0.7396E-3
  5.777     0.7355E-3
  5.779     0.7315E-3
  5.781     0.7275E-3
  5.783     0.7236E-3
  5.786     0.7197E-3
  5.788     0.7159E-3
  5.790     0.7121E-3
  5.792     0.7083E-3
  5.795     0.7047E-3
  5.797     0.7010E-3
  5.799     0.6974E-3
  5.802     0.6938E-3
  5.804     0.6903E-3
  5.806     0.6868E-3
  5.808     0.6834E-3
  5.811     0.6800E-3
  5.813     0.6766E-3
  5.815     0.6733E-3
  5.817     0.6700E-3
  5.820     0.6667E-3
  5.822     0.6635E-3
  5.824     0.6603E-3
  5.826     0.6571E-3
  5.829     0.6540E-3
  5.831     0.6509E-3
  5.833     0.6478E-3
  5.835     0.6448E-3
  5.838     0.6417E-3
  5.840     0.6388E-3
  5.842     0.6358E-3
  5.844     0.6329E-3
  5.847     0.6300E-3
  5.849     0.6271E-3
  5.851     0.6243E-3
  5.854     0.6215E-3
  5.856     0.6187E-3
  5.858     0.6159E-3
  5.860     0.6132E-3
  5.863     0.6105E-3
  5.865     0.6078E-3
  5.867     0.6051E-3
  5.869     0.6025E-3
  5.872     0.5998E-3
  5.874     0.5972E-3
  5.876     0.5947E-3
  5.878     0.5921E-3
  5.881     0.5896E-3
  5.883     0.5871E-3
  5.885     0.5846E-3
  5.887     0.5821E-3
  5.890     0.5797E-3
  5.892     0.5772E-3
  5.894     0.5748E-3
  5.896     0.5724E-3
  5.899     0.5701E-3
  5.901     0.5677E-3
  5.903     0.5654E-3
  5.906     0.5631E-3
  5.908     0.5608E-3
  5.910     0.5585E-3
  5.912     0.5562E-3
  5.915     0.5540E-3
  5.917     0.5518E-3
  5.919     0.5495E-3
  5.921     0.5474E-3
  5.924     0.5452E-3
  5.926     0.5430E-3
  5.928     0.5409E-3
  5.930     0.5387E-3
  5.933     0.5366E-3
  5.935     0.5345E-3
  5.937     0.5324E-3
  5.939     0.5304E-3
  5.942     0.5283E-3
  5.944     0.5263E-3
  5.946     0.5243E-3
  5.948     0.5222E-3
  5.951     0.5203E-3
  5.953     0.5183E-3
  5.955     0.5163E-3
  5.958     0.5143E-3
  5.960     0.5124E-3
  5.962     0.5105E-3
  5.964     0.5086E-3
  5.967     0.5067E-3
  5.969     0.5048E-3
  5.971     0.5029E-3
  5.973     0.5010E-3
  5.976     0.4992E-3
  5.978     0.4973E-3
  5.980     0.4955E-3
  5.982     0.4937E-3
  5.985     0.4919E-3
  5.987     0.4901E-3
  5.989     0.4883E-3
  5.991     0.4866E-3
  5.994     0.4848E-3
  5.996     0.4830E-3
  5.998     0.4813E-3
  6.000     0.4796E-3
  6.003     0.4779E-3
  6.005     0.4762E-3
  6.007     0.4745E-3
  6.009     0.4728E-3
  6.012     0.4711E-3
# 
# 04/27/2021 at 16:16 YPP @ lux-1 [start]
# 04/27/2021 at 16:16             [end]
#  
# Timing   [Min/Max/Average]: 03s/03s/03s
#
# .-Input file : amp.in
# | excitons                     # [R] Excitons
# | amplitude                    # [R] Amplitude
# | BoseTemp= 0.000000     eV    # Bosonic Temperature
# | States= "1 - 9"              # Index of the BS state(s)
# | #DipWeight                   #  Weight the contribution to the exciton WFs with the dipoles
# | Degen_Step=0.1000E-4   eV    # Maximum energy separation of two degenerate states
